sec, nanosec, acc_x, acc_y, angular_z
10,53000000,-0.05820846909705643,-0.004855967659927839,0.0002121046955839247
10,58000000,-0.06722580216241243,0.021331920952605606,-0.000515464030764791
10,63000000,-0.06879294103764022,0.009585140490570517,-0.0001360760810855386
10,68000000,-0.03631808409263508,0.0033094453985251515,-0.0001050128553204851
10,73000000,-0.07513876780328353,0.018819449064827885,-8.277790979957426e-0
10,78000000,-0.032589765072600266,-0.0227081407015732,-0.0002429476364463950
10,83000000,-0.06600950254656282,-0.027013896543167513,0.000125150531545214
10,88000000,-0.04071174468999898,0.017474449683217607,4.585138344936343e-0
10,93000000,-0.04686399836213591,0.006486813652204319,-0.0002336761700130332
10,98000000,-0.045051876598551345,-0.01645174154288754,8.340162135063972e-0
10,103000000,-0.03866569638185084,-0.010199094795114027,-2.0682380042164688e-0
10,108000000,-0.04178691301377531,0.009258799396936152,-0.0001796043412968184
10,113000000,-0.05646085327692545,0.005369933058642522,3.791791387176388e-0
10,118000000,-0.04951298051498961,0.014976854177378937,-0.0003712989818422626
10,125000000,-0.03865129968950841,0.00033795272723739225,-0.0001112551451572106
10,130000000,-0.04737468460802612,0.008469730921090405,-0.0001141965331637932
10,135000000,6.725160807467293,-0.0045731812007556655,0.0002321876613765566
10,140000000,-0.08238440035814115,-0.012760315823199865,0.000327758427722469
10,145000000,-0.09536363876068449,-0.011553511268997443,-2.769721167529716e-0
10,150000000,0.010199122296585768,0.02093250989576254,-5.9758892014250726e-0
10,155000000,-0.2047792593764644,-0.015519218858069544,1.804357606771585e-0
10,160000000,-0.0788947015841551,0.0013635275727482599,-3.9577115608934295e-0
10,165000000,0.08151113182333879,0.011893400504812501,-0.0001650361152344891
10,170000000,6.829304215600319,0.0009776497701599002,-1.4697130456307424e-0
10,175000000,-0.14710229548483078,0.0040309226419269345,0.0002430129801932051
10,180000000,-0.10446964260507008,-0.017050950457877054,-0.000343900161020378
10,185000000,-0.05068314807634608,-0.0157176904486345,-0.000478707483276004
10,190000000,-0.09413500264159735,-0.015357639244050552,-0.000326704586942078
10,195000000,-0.020366057101918057,-0.00957636626300798,-0.000141317017115382
10,200000000,-0.0561156132891854,-0.008630391136985938,-5.996169892096538e-0
10,205000000,6.950066914592736,-0.01479538295519988,0.0002666917415615157
10,210000000,-0.1764943905393578,-0.0033286273208695165,0.0001182734316946623
10,215000000,-0.07304080815995773,0.011024305014480195,-0.0001679078059130215
10,220000000,-0.09407644423725696,-0.0022511980640434774,-0.000329212484811281
10,225000000,-0.039692819918652054,-0.012348583606357391,0.000112767356999953
10,230000000,-0.052937185020397196,-0.028175971216978637,4.57015292998784e-0
10,235000000,-0.01897002843608033,-0.0016213367729679543,-0.000395540174322376
10,240000000,6.9257000850351735,-0.046760843666801784,-2.3338630009769013e-0
10,245000000,-0.1538266906109908,-0.007148482434530305,5.7456905937318625e-0
10,250000000,-0.08659805815240225,0.020902765149831193,-9.402288203431627e-0
10,256000000,-0.03477648573120733,0.0010169626909547155,0.000339791146519460
10,261000000,-0.052529607751714454,-0.006487796948167111,0.0001590873519624143
10,266000000,-0.05836386654197413,0.01838146605634552,0.000312774254750826
10,271000000,6.740440496262016,0.001759539780258741,0.0002111714128842619
10,276000000,0.2264320821253859,0.010948224294367793,0.000256606598879602
10,281000000,-0.13003001910045683,-0.003819441957373531,-0.00030397115313052
10,286000000,-0.05735383672129782,0.000807972888888195,-0.0001970983694824367
10,291000000,-0.027814633103813505,0.013754493350861156,0.0001363430798029181
10,296000000,-0.05454852222564142,-0.005445888552408815,-2.0380798035065356e-0
10,301000000,-0.009637500791712363,-0.0026473695406466,-4.3364417817766e-0
10,306000000,8.701592722443413,0.014937329373687337,0.000244066610024129
10,311000000,-0.14955930129209002,-0.013051691538648063,0.0001383926076274434
10,316000000,-0.07201200167326909,0.02576218749602449,-3.998116541470398e-0
10,321000000,-0.07319263591278555,0.007076181301730129,0.0001967592295062354
10,326000000,-0.03202187455650475,0.026763162703599533,0.000261819684451813
10,331000000,-0.05740494098056338,-0.0006540182139689125,2.961370161190589e-0
10,336000000,-0.02882666147534621,-0.0077947635816557085,-7.798653166561971e-0
10,341000000,6.936526819439539,0.002186857900264267,-0.0001738754741178291
10,346000000,-0.15736906885363916,0.00889340102369086,-0.000140014703350693
10,351000000,-0.06878430968819543,-0.01704190312892149,-0.000397640412525285
10,356000000,-0.03528592869286038,-0.0091318006637637,-0.0002806601300665611
10,361000000,-0.0593814511705157,-0.004805750696725675,-7.143276627290645e-0
10,366000000,-0.0568503788727967,0.03123954085717382,6.233333504997732e-0
10,371000000,-0.045221794347507144,0.021564341831167767,0.0002973092559733951
10,376000000,2.3811042046295765,0.01450854040726303,-0.0001663179136879412
10,381000000,-0.08885262687365018,-0.0022520829766962255,9.778336586967971e-0
10,386000000,-0.016217313944140204,-0.027851500586725166,8.297393824217343e-0
10,391000000,-0.055443141794693146,-0.021083171277451268,0.0001290658727596925
10,396000000,-0.0437041951586147,0.018852120334455498,-4.028986377125406e-0
10,401000000,-0.030701684529492665,-0.001981894761023669,-1.7433914042883283e-0
10,406000000,-0.043866707549786665,-0.00475990538902452,5.119579378732323e-0
10,411000000,-0.02011938414200775,-0.010604723439349185,2.562771625264138e-0
10,416000000,-0.032900286255081075,0.03619885141875682,1.3082934294875311e-0
10,421000000,-0.017538163130319726,0.028516862913791758,5.416631448915453e-0
10,426000000,-0.03355649038325464,0.009758569604771996,0.000502883473056458
10,431000000,-0.0436416239882655,-0.003522326711897424,-0.0001328557622892815
10,436000000,-0.0012929944584428449,-0.0035816557305358068,0.000332430563414556
10,441000000,-0.04410744840125505,0.014970109904900053,0.000365538887080667
10,446000000,-0.057753370931303186,0.009574118963693383,0.000258840893852731
10,451000000,-0.016128984383999304,-0.013050518202643895,-7.371262818903965e-0
10,456000000,-0.01034890270054489,0.00183613924535959,0.0001144028027914585
10,461000000,-0.0427764516974789,-0.0006629865411147453,0.0001302225765301173
10,466000000,-0.04816405997946566,0.0016018574011235497,0.0001370072479909481
10,471000000,-0.005250228674627877,-0.003930175560746986,-0.0001654864146979589
10,476000000,0.0006722777919971751,0.011427610638995896,-0.000141219054319630
10,481000000,-0.013508601700600047,-0.002823597718481642,4.072705265402342e-0
10,486000000,-0.041406750099632794,-0.006664377980336114,0.0003687865411315474
10,491000000,-0.013468907580333835,-0.0225684466504782,0.0001458329591585845
10,496000000,-0.010483080773500068,0.02553017500979409,-0.0001320910435932352
10,501000000,-0.04062769408037041,-0.002713463863036976,-9.55969020629554e-0
10,506000000,-0.02862823139228249,-0.006805198008874637,9.272177680826835e-0
10,511000000,-0.010628039658358327,-0.009541017933438293,7.982188145163455e-0
10,516000000,-0.0306193881990452,0.003380510189132674,0.0001822112244656229
10,521000000,0.001570351671878599,-0.0003957292351701875,-0.0002620834129963828
10,526000000,-0.05887635324146641,0.02240401561584999,6.725693591265865e-0
10,531000000,-0.02400316780129634,0.009401440443556133,0.00026081845218433
10,536000000,-0.024968462604366748,0.02950340120314151,0.000336090057242715
10,541000000,-0.012491861426999755,0.01408546515499186,7.207081193089679e-0
10,546000000,-0.0298522927629964,-0.004327329156219255,-9.173624856295853e-0
10,551000000,-0.007112202126552234,0.009005497409882927,5.027795738582927e-0
10,556000000,-0.010208611478855063,0.010699733429770028,0.000363323360844788
10,561000000,-0.03133487612841057,-0.0008843785515011544,3.3055442203721104e-0
10,566000000,-0.008407151102139099,-0.02182910183499486,1.299979091727004e-0
10,571000000,-0.027024395245405074,-0.009698290517970378,0.000142195770491160
10,576000000,-0.029393333184097335,-0.034936719068038864,-0.000337343947777435
10,581000000,0.010225418250284547,-0.016825010341917756,-0.000137845371702340
10,586000000,-0.05098497410461873,-0.0050334045518446585,-0.00019129614529452
10,591000000,-0.007551044969109848,0.009759534193089565,1.8736161387754064e-0
10,596000000,-0.016693927281809493,-0.013764629811469913,-0.0001041954750432832
10,601000000,-0.022254215303139292,-0.01333098782156391,6.167895790224955e-0
10,606000000,-0.02176157007383599,0.00798422774257334,8.874292157142101e-0
10,611000000,-0.03704728789404589,-0.02596655491144125,0.0001784425466799672
10,616000000,-0.053495350340432554,0.013138559737280162,-7.560866761775212e-0
10,621000000,-0.004384137466755245,4.618692963737829e-05,-0.000230695055429754
10,626000000,-0.0027632471163307644,0.024639725241287512,-2.3627310121306205e-0
10,631000000,-0.016387360902016892,0.024481116641634475,-0.0002693724665430543
10,636000000,-0.03185336425667666,-0.0037183914728434915,-0.0001156020048936209
10,641000000,-0.006674676636209231,-0.016172308817317637,0.000301940595199764
10,646000000,0.006775550821520208,-0.04983102853036769,-0.0001242049629621200
10,651000000,-0.019060755659611652,-0.00035847324768822756,0.0003836146040221671
10,656000000,0.0009723390204999828,0.01855316443267223,-6.191391687137314e-0
10,661000000,-0.003402334387589665,0.0019291931087128862,-0.0001103324679241198
10,666000000,-0.008840004182427724,0.004141881565581649,7.663197306568696e-0
10,671000000,0.001948305863889348,0.00987200009887556,0.0001225694924260696
10,676000000,0.01762141973534474,0.009321263934500995,-0.0001729175077078683
10,681000000,-0.011500281669081135,-0.00932367347906848,0.0001073586830854217
10,686000000,-0.0012998351522996703,0.00351190292953377,7.280266458148319e-0
10,691000000,-0.027963760303442525,-0.006681552901066548,-0.0001040807439082352
10,696000000,-0.018163009692340793,0.018217352694982848,-5.5655336344073884e-0
10,701000000,0.0060041567513180304,0.014347706206426341,-0.0001747283794723767
10,706000000,-0.018537485853407563,0.006571544930226474,-3.5420928476934954e-0
10,711000000,-0.004958902207117058,0.01936538950083385,-6.317670151725449e-0
10,716000000,-0.033346951846777335,0.004130619587364589,-4.937645360174392e-0
10,721000000,-0.00434204701492652,0.030179320689837162,-8.327622223341004e-0
10,726000000,-0.015634910995809024,-0.007060816161311502,0.000281558963115158
10,731000000,0.011453591099603418,0.010607757909211986,-1.2402976847965528e-0
10,736000000,-0.01977372919805416,-0.016077968714033337,-7.162639977570628e-0
10,741000000,-0.00540920782940943,-0.007688784539874549,-0.0003213336507693635
10,746000000,-0.028328122021521008,0.0200353369499391,0.0001190747518251039
10,751000000,-0.02902967114510321,0.0192724714458328,-0.000533066192654284
10,756000000,-0.03326083046965437,-0.012302002880537597,-2.299241165993933e-0
10,761000000,-0.01806526078155366,0.02739346556600892,6.652078549453485e-0
10,766000000,-0.032244783814254205,-0.0006681074909017018,-0.0001063430121025127
10,771000000,0.012184512645061806,0.0037987798692528827,-0.0001743112953527721
10,776000000,-0.013183487910404025,0.02549187623471635,-0.000173889744035779
10,781000000,-0.021385761027398295,-0.010245687237395069,2.0921263685817432e-0
10,786000000,-0.010532468523413243,0.02296861718233292,7.567535322609826e-0
10,791000000,-0.009577903714377969,-0.0052060912447783915,5.014663124400681e-0
10,796000000,0.02086710542281482,-0.031770649196338034,-4.0226334803120744e-0
10,801000000,-0.017751783186781566,0.03087943533664878,4.61350013551095e-0
10,806000000,-0.03865165286480744,0.01694218173285207,0.000668306790070561
10,811000000,0.004348794617343828,0.030067149073161454,-2.1100719480124927e-0
10,816000000,-0.021569177815489272,-0.015620924467019393,7.984296399970344e-0
10,821000000,-0.0004965090460145819,-0.01662710379996378,-0.000144309649187205
10,826000000,0.00025018138599082647,-0.0028953012314661174,-0.0001425289157390562
10,831000000,-0.026051475673447316,-0.04511552439546079,0.000132640536393117
10,836000000,-0.046914152029443955,0.029101842635080637,0.0001367667131006737
10,841000000,-0.01575141241456256,-0.017370632791276014,0.0001227178872117041
10,846000000,-9.853000099949681e-05,-0.011215243790350965,-0.000207754841746564
10,851000000,-0.003277003352800503,-0.008052460597983726,-9.752812303126693e-0
10,856000000,0.007894489444573395,-0.00821527636071524,-7.232510862214858e-0
10,861000000,0.00401624215288523,0.021688284146591668,5.183557911206941e-0
10,866000000,0.005672537899716706,0.009821364974955234,-0.000263587432823674
10,871000000,-0.02744320598151172,-0.004629034110217527,-0.000142973412957716
10,876000000,-0.0314055697810641,-0.0064396789193047,0.0002040237840109411
10,881000000,3.1932238636607144e-05,-0.009960448766373671,-0.0001049520440473020
10,886000000,-0.02223595420271823,-0.002128901052530278,8.205150394179292e-0
10,891000000,-0.023053673485368298,0.027316346876550674,9.59833214217718e-0
10,896000000,0.025428108335587833,-0.015052761640364292,0.0001841146920330993
10,901000000,-0.015366964526625433,0.015154503852418497,9.628497846010988e-0
10,906000000,0.013345478162920062,0.001964008639773468,0.000244928890448653
10,911000000,-0.040631347213870427,0.022896521441176917,-0.0003003434468771586
10,916000000,-0.05178661984809939,-0.025630532974049512,-0.000213568030209920
10,921000000,0.0012779314870890596,0.010421024643799492,0.000287836732172624
10,926000000,-0.02973290971524403,-0.012512962064933799,0.000370049011332830
10,931000000,-0.0391486455610779,-0.004158392711411115,-5.339469029522323e-0
10,936000000,-0.03304017856412184,-0.003330553347477878,0.0001001285008953934
10,941000000,-0.00759726928781756,0.012593597601760159,4.843267666503514e-0
10,946000000,-0.011774999174177053,-0.008745712601813706,0.0001690395072729691
10,951000000,-0.03362664028774354,-0.029451164469852274,1.1491860118974785e-0
10,956000000,0.026357276261265616,-0.021580036853198425,9.616586130202587e-0
10,961000000,-0.025131169112414194,-0.004793669701042435,0.000282081987714488
10,966000000,-0.0019532661993187025,0.04412123926440373,0.0001800450525994321
10,971000000,-0.022458917678919853,-0.009760771874274024,-0.0002405554060446397
10,976000000,-0.009564699637024254,0.00867182258566968,-6.564700693557358e-0
10,981000000,-0.012386292207030268,0.01564485432421123,0.0002149893851374459
10,986000000,-0.053888090254192625,0.0027133115173886067,-0.0002471467131432320
10,991000000,-0.05208375767864769,-0.002410742583835733,-0.0001341059114873986
10,996000000,-0.05419132401768483,0.018255232811473003,0.0001888113759398759
11,1000000,-0.04018096940291914,-0.01878803477460677,-0.000316345424341304
11,6000000,-0.014429471976784009,0.017902016100971172,0.000118268753727116
11,11000000,0.000848309546313035,-0.010367927381389752,-0.0002250789165197935
11,16000000,-0.025675424457599464,0.006615241221714092,0.000530263891607510
11,21000000,-0.004295926320370173,-0.004557302948122613,-0.000153432825275170
11,26000000,-0.05328199534191547,0.0037498443280332655,0.000164675712194882
11,31000000,0.0188786280867351,0.001946952397423033,0.000121631317656453
11,36000000,-0.02785355250139464,0.015333927755368043,-2.444488271902974e-0
11,41000000,-0.0059155995689014924,0.010012931283388215,-0.000107264907822000
11,46000000,-0.05101677189698888,0.014917444380903254,-0.0001630621094175308
11,51000000,-0.04031976773151242,-0.03350949764475711,-8.463403030852829e-0
11,56000000,-0.016028729965584673,0.01770415908145809,7.257308003469138e-0
11,61000000,-0.012185534416973494,-0.005041915866190218,-0.000203051133059832
11,66000000,-0.020449363568870532,0.02379288083071564,9.981007471957358e-0
11,71000000,-0.011213556975916915,0.013682654601799163,-0.000443768536118156
11,76000000,0.001925909560288326,-0.02562700886545142,0.0004142247277125049
11,81000000,-0.03813342129882044,-0.0017538477012746818,0.0001783731077414806
11,86000000,-0.039762916788118774,0.01145800726599195,-0.0003445658078041510
11,91000000,-0.046157924653883686,0.005798248304090025,-1.656308392615463e-0
11,96000000,-0.038929631934952066,-0.0038431404746882445,0.0001182129399139638
11,101000000,-0.03292283753026765,-0.018307776434725722,3.8256135154221264e-0
11,106000000,-0.038279147443280516,0.013976646768087813,-4.593999834145536e-0
11,111000000,-0.05965263509764883,-0.012699765265518423,0.0001376155628007710
11,116000000,-0.039098380015072376,0.037249445032165034,-0.000109040320242329
11,121000000,-0.03763092957846326,0.007012470339413088,0.0002045416184072082
11,126000000,-0.04638872322357421,0.00821797551546179,-0.00019305163997573
11,131000000,-0.06120596371019195,0.010383677544457353,1.0947627693601127e-0
11,136000000,0.0024516831732889557,0.028534813213642117,0.000218490193483197
11,141000000,-0.04892239986028244,-0.016642820945026303,0.0001620825938996489
11,146000000,-0.07500041990939901,-0.00102916263856545,0.0002254897171668545
11,151000000,-0.033473837520973014,-0.009950033703941116,-9.838102776843282e-0
11,156000000,-0.02336209134693191,0.021520560517917176,0.000133716035458590
11,161000000,-0.020510871877773368,0.002573011568474193,5.293750483333815e-0
11,166000000,-0.030612536011193067,0.003383371079281207,0.000437433490449140
11,171000000,-0.06164295008477198,-0.00895241311795824,-9.492788072233669e-0
11,176000000,-0.026191549005344966,-0.03746927730529861,-5.242799204585073e-0
11,181000000,0.000554283307095324,-0.01445820668314121,-0.0002141960567214978
11,186000000,-0.0832796121224335,-0.01692008656632487,2.0631985194706223e-0
11,191000000,-0.03420135004769615,-0.00021597039618826655,0.0001279229108346914
11,196000000,-0.04582189843811983,0.0039299926425245294,0.0001240223124294844
11,201000000,-0.034620819608458205,0.007513309689289402,0.0001631807436547244
11,206000000,-0.012057955491289258,-0.0004845361151181089,-0.000118326499403093
11,211000000,-0.0355582639997429,0.010948705150287487,-0.0001426758260060004
11,216000000,-0.01345227674017119,-0.00013965948595344956,-0.000300389983480634
11,221000000,-0.05269262615487315,-0.03141060786661226,-0.000228788128737764
11,226000000,-0.04586105387243659,-0.011200217256197064,3.305732964286581e-0
11,231000000,-0.06901186121269093,0.03091147571980238,8.23547476472833e-0
11,238000000,-0.055282497871593866,-0.004005135936230766,-0.0002635458434000022
11,243000000,-0.07128896186613223,-0.009205360134337454,7.788830868445287e-0
11,248000000,-0.04149193994358444,-0.05353398037406841,-0.0002740411874607026
11,253000000,-0.05448621099664696,-0.006487838990615869,6.829181787143948e-0
11,258000000,-0.04251149925434089,0.014958273178232664,-8.844071147585526e-0
11,263000000,-0.053697149895282396,0.03802841790874999,-0.0001366516235512208
11,268000000,-0.029622652418980478,0.011936130535086237,-0.0002287530271349684
11,273000000,-0.058548454343148426,0.027033278625006863,0.000218245136434228
11,278000000,-0.08091277168004413,0.014058972329823994,0.000167453143488289
11,283000000,-0.053800389855544056,0.028797155339104836,-8.999431485266047e-0
11,288000000,-0.012001929123271863,-0.010038200433829818,-2.562149230273126e-0
11,293000000,-0.14816676447515756,0.01809557710180553,-0.0001244874767539970
11,298000000,-0.053416130046957645,0.027411972780809632,0.0002385643041305790
11,303000000,0.029057553335433077,-0.01595211381259719,-0.0001790375642731095
11,308000000,-0.23449645603636474,0.03836371246549789,3.602717943851861e-0
11,313000000,0.006757927361273862,0.019095340771962097,1.3953142621119416e-0
11,318000000,-0.050664158308937356,-0.00865160934445393,8.403816341414686e-0
11,323000000,-0.142348574222278,0.037257175575661015,-0.000316570949700935
11,329000000,0.018381206078296103,-0.004058530260541261,-1.4740635976962296e-0
11,334000000,-0.07593716146854881,0.019243462760290757,0.0001192864435253750
11,339000000,-0.14392154404790694,0.0024626925529354993,-0.0002686009183894873
11,344000000,0.0797365126591644,0.009672456609712398,-0.000375035800134496
11,349000000,-0.039760088766152835,-0.009969434028249905,-2.180975339140513e-0
11,354000000,-0.07235905247049025,-0.026444546491702962,1.8276360274987163e-0
11,359000000,-0.06638980910439077,0.014923207310176793,-0.000267491095889578
11,364000000,-0.08577395885675357,0.02173780408825919,0.0002302175316102045
11,369000000,-0.07123057248475273,-0.0031741877172264234,-0.000242156399212245
11,374000000,-0.07673381072958661,0.05007305741154102,-0.000196155202697863
11,379000000,-0.087365394685839,-0.017220554891545267,-0.0001996984176645718
11,384000000,-0.08296029274992099,-0.002739772753107506,-0.0001773849443797558
11,389000000,-0.03625005754340128,-0.005054169820040669,0.000204223390123795
11,394000000,-0.06842267595690678,0.031903562091855325,9.710227657982957e-0
11,399000000,-0.09439750433841287,-0.01703487620473111,-0.000270183553505051
11,404000000,-0.06376140941905253,0.013613342133994562,-0.0002757724408918007
11,409000000,-0.06786018227683403,0.01455979297504791,-1.2138754262672561e-0
11,414000000,-0.0641870701942997,0.0028539313068405817,-0.000381157471964663
11,419000000,-0.06073969613471185,0.0024416551968792955,0.0001158066429933925
11,424000000,-0.08523878867084819,0.0037068135636771572,-4.345926325192147e-0
11,429000000,-0.09219641932848033,0.015633294474747733,-0.0001662511640796332
11,434000000,-0.05019831248253967,0.009662485974774364,0.000427715144399727
11,439000000,-0.06818616299836577,0.005576990601312632,0.0003940314792166187
11,444000000,-0.08971316179333885,0.016880128391627707,0.0001909241311152064
11,449000000,-0.07587831785227846,-0.00484788517876199,1.2701968715973256e-0
11,454000000,-0.08545953597580688,0.007978309575237008,4.4886965910729015e-0
11,459000000,-0.060651439707337024,0.011073893328790595,0.000230635679002630
11,464000000,-0.0694958040406378,-0.01110687743606834,-0.0002405333312662243
11,469000000,-0.05592224872250165,-0.016688464046056426,-5.8456858585865426e-0
11,474000000,-0.09321699857240198,0.009138305681269127,-9.546111815363569e-0
11,479000000,-0.054902906812330926,0.007938408347841113,-4.600193477362465e-0
11,484000000,-0.050542420735473284,0.017983439143117678,-1.7701601171143362e-0
11,489000000,-0.07049544212671925,-0.01249674508244373,-0.000370073895152121
11,494000000,-0.050890608229215824,0.017387328234964142,-0.0001270347278074174
11,499000000,-0.061099427613284074,-0.013800741195293769,6.82352340715906e-0
11,504000000,-0.09674988407027166,0.004312961141239777,-3.1188521737833326e-0
11,509000000,-0.05437963485448133,0.02284597562594061,0.000318869282345897
11,514000000,-0.07625077193840903,-0.0028362628670576782,-0.0001600320823498699
11,519000000,-0.0710379424441233,-0.00746458368590546,-0.0002252871549108188
11,524000000,-0.08057245483496718,0.02828062581259672,-6.563972720203905e-0
11,529000000,-0.06708590240334517,-0.01546045079079468,1.8692507003681422e-0
11,534000000,-0.06457345730144413,0.007553003319382626,0.0001525274021208294
11,539000000,-0.06831564474480978,-0.011523493032485926,9.852764746929187e-0
11,544000000,-0.07497552628743712,-0.008745881062955149,-0.0001317688884358870
11,549000000,-0.057588498383865344,-0.004682837933761234,2.778401370508529e-0
11,554000000,-0.08607288415704833,0.007766368270982703,-0.0001272186747860098
11,559000000,-0.07414141040296057,0.0489451828374776,7.630363949042309e-0
11,564000000,-0.052091865430399745,-0.019526765309143816,-9.798254424860718e-0
11,569000000,-0.09792625772238475,0.009629752112017689,1.6639006008182214e-0
11,574000000,-0.04847923300798204,-0.02461763027142859,0.0001522853078719902
11,579000000,-0.04745937868482216,0.0004972915025347724,-0.000346171380939376
11,584000000,-0.08842953618000428,-0.01443603102041438,1.5397453081947816e-0
11,589000000,-0.04613100666590913,0.018471172254547377,0.000171392300729421
11,594000000,-0.07681065948497431,0.025219369990922644,-0.0001494701684378624
11,599000000,-0.08399272339815109,0.014794184213525473,-5.9557033427466916e-0
11,604000000,-0.010335921821430012,0.03285313583280087,0.0001000995923450982
11,609000000,-0.11973333233252384,-0.009309248143097137,-4.5175134853313704e-0
11,614000000,0.04343218837290032,0.018697029477520225,-0.0001416264777308380
11,619000000,-0.05534059966990313,0.029013819570471992,-4.663242973974212e-0
11,624000000,-0.12476286912957885,-0.006401576209141528,-0.000396407509409917
11,629000000,0.017132672802848213,-0.012881116804174773,-2.8730500029019812e-0
11,634000000,-0.17247716295664547,0.009763565135210636,0.0001973008657402489
11,639000000,-0.08758325752162295,0.021881759836529267,-7.383265451841569e-0
11,644000000,-0.04551130270841882,-0.0037081016398337026,0.0001494794417289038
11,649000000,-0.041543999176710006,0.033140894638427044,0.0002183833157361059
11,654000000,-0.05045343397707631,0.014970246399239967,5.730084930736482e-0
11,659000000,-0.0584212459654586,0.019272140163462535,0.000268102223489480
11,664000000,-0.04832734636982558,0.01939371405352209,4.0124875609783075e-0
11,669000000,-0.03187477950722635,-0.005180723879145609,-5.8971189849884174e-0
11,674000000,-0.048601273254293496,0.03908410973105991,-0.000262114867372733
11,679000000,-0.029448497903262094,0.006006044907622112,0.0001712103406886587
11,684000000,-0.08696253676073532,0.020228617463004365,0.0001238842859210212
11,689000000,-0.05266952824416212,0.03229338838862448,-5.456233190185508e-0
11,694000000,-0.05464560496975282,0.017718402570021895,7.771097938625099e-0
11,699000000,-0.06050736692271229,-0.002248588374968291,0.000169205510494292
11,704000000,-0.05712462496338551,0.009499056714296962,-0.0001878199564895575
11,709000000,-0.033095875882648895,0.0137268973269678,-5.9977121016453415e-0
11,714000000,-0.04012679376583507,0.0024867227178335203,6.590202883239198e-0
11,719000000,-0.04083191644810156,0.011564224503472848,9.703726152002441e-0
11,724000000,-0.04859608213929604,-0.030955183781715658,0.0001030965586110076
11,729000000,-0.026231730272023683,-0.012412554246976215,1.4627700625255431e-0
11,734000000,-0.07616746620992078,-0.025419637992935198,0.0001667275963532213
11,739000000,-0.028911629941590782,-0.010255820093444258,-0.0001830140321353797
11,744000000,-0.06478396397177183,-0.005023341299149696,-0.0001399067559019332
11,749000000,-0.047960081570262963,-0.020358073374762715,-0.0002456414620392136
11,754000000,-0.029032054996254227,-0.008110347522733754,0.0001739657031060633
11,759000000,-0.02441701618165631,0.012506752755161417,-6.279637371706545e-0
11,764000000,-0.03090991522717525,0.0037473869793620434,3.7718790044065664e-0
11,769000000,-0.04627858926417905,-0.03484092826633361,2.605239239184061e-0
11,774000000,-0.05342064986194162,-0.010670708024438213,-0.0001533600974851097
11,779000000,-0.026822147735179505,-0.012810034544485243,5.579331056020706e-0
11,784000000,-0.017797268424427675,-0.01680055811664528,0.0002684277508782769
11,789000000,-0.036940506260877935,0.03023541232712082,-0.000268870271760029
11,794000000,-0.02354844905226577,0.015894474677298067,-0.000406609318466494
11,799000000,-0.03202931189079984,0.004154452625119936,-8.07562330332052e-0
11,804000000,-0.03666826066995217,0.01682640044712899,-0.000134972447981777
11,809000000,-0.02919424888316289,-0.00494063067865781,-0.0001080773376559656
11,814000000,-0.0356545698824191,0.007364263357676682,9.248101616469191e-0
11,819000000,-0.00861751967212255,0.005698238529600032,8.260970874889344e-0
11,824000000,-0.03783234844741593,-0.007029101856737304,-8.836676311713468e-0
11,829000000,-0.0514596312745342,0.0011523294147871414,-0.0002637730328759365
11,834000000,-0.03910754472600376,-0.016347750738836996,-0.000276818383398157
11,839000000,-0.03892928670156634,-0.001236589194388386,-2.78072770432812e-0
11,844000000,-0.057937679457741316,0.004932543707876803,-0.000247266815615948
11,849000000,-0.022243370105200437,-0.015188234938911182,4.140013455008406e-0
11,854000000,-0.05102412027304207,-0.02430439975633084,1.9841240500197453e-0
11,859000000,-0.036815635179512356,0.0325892297302487,0.0001243168796615217
11,864000000,0.0038780770444493406,-0.0007601388185331373,-9.192861113923567e-0
11,869000000,-0.06066039026715385,-0.005668509008600872,0.0002070459525940453
11,874000000,-0.02901874869068093,0.002901591243496965,0.0001152688094046915
11,879000000,-0.025205455993935328,0.015420323518587742,7.339831847929169e-0
11,884000000,-0.06680652280248937,0.0005241753696449355,-0.000268475984727429
11,889000000,-0.02016321723528492,0.0018486688760961517,-0.0001631063284743177
11,894000000,-0.020620357170199895,0.002709785603021814,2.5729163003657566e-0
11,899000000,-0.04730154393902161,0.0030731177716368206,0.000287110434304263
11,904000000,-0.01883475642571779,-0.008261104322786662,8.521937228049523e-0
11,909000000,-0.019835984432038524,-0.008316112361912367,-7.312325742906298e-0
11,914000000,-0.031511339499814855,-0.014738266008646847,-4.0036379303574485e-0
11,919000000,-0.05223776486061336,-0.015754427427127828,-1.8014548856483463e-0
11,924000000,-0.025901738887709587,-0.0007437273310041015,-0.000250312511865873
11,929000000,-0.029970760402853094,-0.008721534330326292,9.050648100536461e-0
11,934000000,-0.04172829995747529,0.009835885707648265,5.81776837372179e-0
11,939000000,-0.012098413247352845,0.025072057212557196,0.000238547086371865
11,944000000,-0.030546862509949323,0.00043573850367683924,-7.941641309946426e-0
11,949000000,-0.026540149326586885,-0.02027516585748123,8.336952430607034e-0
11,954000000,-0.05435345079842624,0.01929261816679958,-0.0001062286520469632
11,959000000,-0.03549302288892708,-0.010160232070193105,0.0002479491962188064
11,964000000,-0.020641398241105204,0.0031614441633276698,0.0002626562089184639
11,969000000,-0.015400950763710793,0.00771721412810732,0.0003058573836803609
11,974000000,-0.009363475030678633,-0.03182510949074051,-0.0002495942779162804
11,979000000,-0.039981753860203,-0.017189313839526075,-0.0001232083479243103
11,984000000,-0.019686153369255846,0.004708015223018258,0.00014121842550965
11,989000000,-0.03668796088009619,-0.032423834887833305,-4.719564321152611e-0
11,994000000,-0.050135162031547935,-0.016966207169509168,0.0001177180176551301
11,999000000,-0.024701123254604038,-0.0013711866145883931,-0.0001392163355545793
12,4000000,-0.021039292417154694,-0.0041772430524458426,0.0001637683281710168
12,9000000,-0.0010158620812822997,-0.007337719275899126,0.000528782855923611
12,14000000,-0.037706974770296504,0.013460853093612942,0.0001225732806443280
12,19000000,-0.050305485018316116,-0.02629530895337049,-0.0001178582495062737
12,24000000,-0.012769991204060256,-0.02251438295591105,0.0001484672470053726
12,29000000,-0.061980260662824235,-0.025093034711115784,-5.412606280065971e-0
12,34000000,-0.025223801517428975,0.026474406282174456,-0.0001290735457758612
12,39000000,0.004269637626985876,-0.02140699415013542,1.2322359524756427e-0
12,44000000,-0.023687917331609815,-0.008193893629322633,5.9309730656819144e-0
12,49000000,-0.018782760408153312,-0.0038857927518724574,4.0726659441412266e-0
12,54000000,-0.024766806606504103,-0.041637709810014516,-0.0001437359535601096
12,59000000,-0.029770534449875437,-0.001096039865631197,1.9687029872080893e-0
12,64000000,-0.04918141583615845,0.008547558184764175,-0.000105098524622496
12,69000000,-0.008100901782200846,-0.04703374159068912,9.13924359230216e-0
12,74000000,-0.03381130466456642,-0.011560698447508266,4.043704643403507e-0
12,79000000,-0.03897907976592566,-0.011172330835233063,4.536003043136973e-0
12,84000000,-0.0451893517980031,0.004690031609115441,-4.713475154650167e-0
12,89000000,-0.021054422480034293,-0.0011070372106450335,0.0003245963793203534
12,94000000,-0.05928009572425895,-0.03701967288551759,6.730510130150876e-0
12,99000000,-0.022192912127843207,0.011626379250567363,-3.523377970337086e-0
12,104000000,-0.021055361652434643,0.01127505971728299,7.514600137464091e-0
12,109000000,0.0149356649470282,-0.010317363456233462,7.417429299219116e-0
12,114000000,-0.0435796550026166,0.019196171378849394,6.843064651395017e-0
12,119000000,-0.08017760444438228,-0.0114696367057869,-0.00034721958992203
12,124000000,-0.020280825037985742,0.004991709504833831,-0.000212963063370496
12,129000000,-0.03815750172440134,0.007135053004561469,-1.3760243686534761e-0
12,134000000,-0.03919397871267449,0.024246822960261025,0.00025389986818579
12,139000000,-0.014574479094650167,0.005817686382203343,0.0001900119728770027
12,144000000,-0.03672684767072771,0.010852730085690479,2.875899487561559e-0
12,149000000,-0.04206096853387857,0.005839912872403168,5.905997769447163e-0
12,154000000,-0.031683797180215884,0.0008046526171184588,-0.000188050507094018
12,159000000,-0.03433303230897456,-0.01375373944309255,0.0003327170660046700
12,164000000,-0.024057761558265715,-0.028578817101032328,-4.995677798411159e-0
12,169000000,-0.0407454438282106,-0.022689638483769516,-0.000330694630095692
12,175000000,-0.013565611259599819,0.0008890064788490995,0.000178597113162518
12,180000000,-0.044930324171564257,0.013865527897856382,-0.0001017194181212718
12,185000000,-0.045111406575093015,0.0014999964274811926,-3.9272908326262485e-0
12,190000000,-0.009259529613957394,0.007485043555890808,-1.7838959969574817e-0
12,195000000,-0.030107041415893897,0.0032923153490826192,0.000120112206853804
12,200000000,-0.045997011556219915,-0.00954066445117961,0.0003776584410451075
12,205000000,-0.036184594931979494,-0.006861853992264848,4.681218389599187e-0
12,210000000,-0.03756457242688369,-0.0027991516333429186,-0.0001243276657879883
12,215000000,-0.0417662378824182,-0.0014538917299658344,0.0001070391424900872
12,220000000,-0.07418933986806006,-0.020174110050559982,-0.0001780765659904914
12,225000000,-0.03532006940766029,-0.03380143482355983,0.0002045503081450009
12,230000000,-0.06154077359520484,0.027829515193046304,0.000501402830292392
12,235000000,-0.04846029231617844,-0.00271507424508312,-3.608965433608064e-0
12,240000000,-0.025980319664976055,-0.0035027847436127557,-0.0003203190163510053
12,245000000,-0.025598448580992063,-0.011224023956215837,-9.796879553888979e-0
12,250000000,-0.012581810951138177,-0.031858282528589445,2.695672002181738e-0
12,255000000,-0.022115832347004826,0.004208482917257352,-7.819191697942167e-0
12,260000000,-0.035968896384806645,-0.010642801905939912,8.042509682257852e-0
12,265000000,-0.05690000028751489,0.004403348296101277,-3.916774258885889e-0
12,270000000,-0.02035211222010207,-0.007405347521554421,-6.364883251207208e-0
12,275000000,-0.044154018628885607,-4.066132601776465e-05,-0.0002528103880997223
12,280000000,-0.033500372831883916,0.005651484639940111,0.000144177430572155
12,285000000,-0.04590535901918761,0.0049843949719169806,0.0002127054013604758
12,290000000,-0.04834784087520242,-0.014678681840570551,0.0001901478979628266
12,295000000,-0.025466362211421005,0.01575521375786321,-0.0001966593324388516
12,300000000,-0.046920523449330426,-0.035930391710445736,-0.0002183673308201960
12,305000000,-0.050489189105634553,-0.02687975265818517,-6.671018963236537e-0
12,310000000,-0.05130416013006217,-0.01222087523468647,-1.0700747423883965e-0
12,315000000,-0.02342477970832968,0.022903864518262228,-0.00017049355101747
12,320000000,-0.03899968522941436,0.013175205137451247,-0.000165834648775133
12,325000000,-0.026518568533937602,0.0010211355348931624,0.0003123657690045598
12,330000000,-0.052580564359901744,0.0028602297262368967,0.0001188179523154521
12,335000000,-0.05373919735256938,0.008980146531310844,-0.0001583837313813197
12,340000000,-0.036756103509742316,-0.009577411081217648,0.000267404198486382
12,345000000,-0.03265544541101597,0.007449115632724055,-0.0002948429942434029
12,350000000,-0.05599603100517557,0.018944686090211958,-8.318986508744986e-0
12,355000000,-0.06424569810205029,-0.017804110130875107,-0.00021465991653305
12,360000000,-0.015218221485003403,0.03356268271231624,-6.402501307114212e-0
12,365000000,-0.049127509784710345,0.022637253212508344,0.000271014085642336
12,370000000,-0.06508444942260545,0.0012939831357571346,-0.0001101301071324504
12,375000000,-0.06568665930630896,0.0069221066073502134,-0.0004453180628962412
12,380000000,-0.06403331202734336,0.010861740107391204,9.6855243262932e-0
12,385000000,-0.04059550250388292,-0.00821403967886552,6.825203165499272e-0
12,390000000,-0.04560329341635723,-0.016765905629901996,8.143058514095132e-0
12,395000000,-0.085694762590486,0.014327103861670045,0.0001358309615641834
12,400000000,-0.02544077598410234,-0.01655431279562728,-6.505461124993175e-0
12,405000000,-0.06670899878429712,-0.008790915313354264,-6.387188210622139e-0
12,410000000,-0.04911566604815484,-0.003243460931264233,0.0001062402831484746
12,415000000,-0.04370548594138702,-0.005520436491552617,0.0003458360365334470
12,420000000,-0.031414679456703176,0.003388797591262325,-4.856076945904018e-0
12,425000000,-0.05431526949073625,-0.005740039676077841,0.000503185305636111
12,430000000,-0.05910785093457953,0.0006375503572353292,4.708621915416117e-0
12,435000000,-0.03732760731814713,0.0011742372722333496,-0.000305612929878383
12,440000000,-0.06928461522202146,0.0019340962407441743,-0.000212876133996102
12,445000000,-0.0741813607481438,-6.377529774957257e-05,-2.4066759386351744e-0
12,450000000,-0.005476011811680462,0.02176220646385517,-1.6907853466692016e-0
12,455000000,-0.11958926260319873,-0.008675939954315169,-0.0002439799158025655
12,460000000,-0.039032791756333764,-0.03914383704638753,-0.000280470568617123
12,465000000,-0.001342102683620252,-0.008923523346842367,-0.000264721178393873
12,470000000,-0.08228606273150861,0.0022317583616467056,4.574925484938489e-0
12,475000000,-0.008558253048725241,0.030799877423512447,-0.000195556547812928
12,480000000,-0.12873591225228714,0.019356951098226143,-0.0001040311188032077
12,485000000,-0.024070114747929923,0.004095920277961682,-7.512514035331764e-0
12,490000000,-0.034694649926027804,-0.00156283222545107,0.000133369636662771
12,495000000,-0.058536310912250214,-0.014963102745712772,8.131297650781256e-0
12,500000000,-0.06989511635997091,0.021685367975704927,0.00015137644042132
12,505000000,-0.047895028122504825,0.021042135850001337,-0.000339140109539324
12,510000000,-0.07483491584386044,-0.01544793778589007,-0.00010046627978919
12,515000000,-0.08803742074099642,0.0187206159738154,-0.0002229236590153894
12,520000000,-0.0854350877908437,-0.016078626852225227,8.377726033513632e-0
12,525000000,-0.07642738506155791,-0.01072987326176542,0.0001241596686808831
12,530000000,-0.04954194507744227,-0.005723661492725957,0.0003428232470132670
12,535000000,-0.0875743672986669,-0.0008175128361245908,-7.895335755539918e-0
12,540000000,-0.06065351794414843,-0.011779880626065237,-0.0003396722831829450
12,545000000,-0.0625405714133322,-0.007724993917408672,-0.0002226945153673781
12,550000000,-0.07075971667822237,0.0066648992539085905,-0.0004441030138017798
12,555000000,-0.07885706280661632,0.02215589423084749,0.000208591901274460
12,560000000,-0.04943161569631935,-0.004199804523486141,0.0001295537039400793
12,565000000,-0.03521071171553493,0.011748522092820865,8.828012574008165e-0
12,570000000,-0.03953297220778396,-0.0060673513566249435,8.699136547880006e-0
12,575000000,-0.043026490151708216,-0.01668885805121731,-0.0001407491857388477
12,580000000,-0.06844764212915003,-0.008929162446317765,-0.0001460894885412264
12,585000000,-0.043090690904744544,0.007038254657628957,-7.688942413521153e-0
12,590000000,-0.07648257117154016,-0.01482253574101799,0.000139928159850084
12,595000000,-0.06936968082481164,0.011973463817897016,0.0001152063375040991
12,600000000,-0.07686201381728802,-0.02219209001694178,-0.000306845918434663
12,605000000,-0.0590874061802633,-0.006794179235852631,4.93084869733248e-0
12,610000000,-0.0611480904286488,-0.02643619773295898,0.000263994040396477
12,615000000,-0.07232337002366215,-0.007609955533573518,0.0001180764528122725
12,620000000,-0.08159163752300744,0.0020382903189080067,0.0001576805184584096
12,625000000,-0.08024921899313621,0.007970184083675221,0.0001563350070856723
12,630000000,-0.038953823309490376,0.028711908408428213,0.000307658882967885
12,635000000,-0.057469271454737125,0.023730741329323377,-9.690107992252217e-0
12,640000000,-0.0941258590510513,-0.010927302526559705,0.0001034673674216796
12,645000000,-0.045072202782660484,-0.006333380784923922,5.148383062621833e-0
12,650000000,-0.05875184648578637,-0.02899529867460021,-0.0001570866054209836
12,655000000,-0.04619354060179945,0.022229306641497103,3.635533092867874e-0
12,660000000,-0.03312396619091675,0.023552619768551854,-0.0002296786080464551
12,665000000,-0.0823119208010284,-0.03640138420483071,-1.9881075087090105e-0
12,670000000,-0.06952532550432253,0.0031344500822835914,0.000183534846682504
12,675000000,-0.058716502728773885,-0.026845332840558844,0.000356688770166582
12,680000000,-0.07101916919484422,-0.0024805777360903166,0.0004001859015122499
12,685000000,-0.05065174174701225,0.019866319533913816,6.0975365776988076e-0
12,690000000,-0.058753752272054593,0.017970160376928133,4.452950086467592e-0
12,695000000,-0.06316139022638463,0.016285644872581048,-0.0003046091005204086
12,700000000,-0.12354608381281015,0.003203485919657535,-0.0001454132316569129
12,705000000,-0.004476694934133212,0.017141755606972165,0.0001323837491994859
12,710000000,-0.09662036870596372,0.02769459127135986,-0.0001748067420255022
12,715000000,-0.0937214730728925,-0.017808081599201844,0.000156977897309628
12,720000000,-0.020362649696676366,0.0038108054973226236,-0.000218774021412395
12,725000000,-0.13404714877862187,0.0039897047650901615,0.0002560210001384169
12,730000000,0.0016544477522896107,0.02705910576335075,5.10612553175195e-0
12,735000000,-0.09282099308541994,-0.0031135558902826606,-6.369991209113754e-0
12,740000000,-0.05799721822679474,-0.03794283595543709,-0.000348254412986934
12,745000000,-0.05073893866420524,0.005985851664502046,-3.3630325214076516e-0
12,750000000,-0.11781700575974813,0.02497491971922509,-0.000262654123511291
12,755000000,-0.03503274373311689,0.00939258542732675,-2.9711969434882966e-0
12,760000000,0.015248134143632883,-0.02688763566317148,0.0001932654801572827
12,765000000,-0.10065570908251109,0.02777554104003684,-7.451169567435202e-0
12,770000000,-0.06620263212933239,-0.009019651487562631,-3.340604458864901e-0
12,775000000,-0.04726040678233429,0.0075119006606597675,-0.0001410376818325007
12,780000000,-0.025693341212638394,0.022527524370048027,-8.292781178815056e-0
12,785000000,-0.08358464523303091,0.02220435643443612,0.0001600218395600732
12,790000000,-0.06051895943038536,0.022365845517603757,-0.0001454835155289422
12,795000000,-0.034807332584641006,0.022006887488876165,0.00052013923723899
12,800000000,-0.04646175875816541,-0.006732913301593453,0.000337727092204640
12,805000000,-0.053710566718486334,-0.010421848636701196,0.0002168469288744386
12,810000000,-0.04292457443502038,0.02584149977400578,0.0001155716509183155
12,815000000,-0.026707107754053806,-0.011273310086291647,-0.0002867456486226150
12,820000000,-0.08050129857440116,-0.03087340257170838,0.000217797730631709
12,825000000,-0.033892377186668224,-0.036474122655896175,-0.0002626575148696284
12,830000000,-0.04131592999665385,0.014441038039974608,0.000218663774759501
12,835000000,-0.08745888367108096,0.03474877848553329,-4.2209319958060896e-0
12,840000000,-0.09754631529913052,0.0014096559976771363,0.0001382180237122351
12,845000000,-0.006933549295678007,-0.0019165570240157672,-0.0001268531270669017
12,850000000,-0.04429214646043566,-0.012463231756573444,-4.3605635530795565e-0
12,855000000,-0.051763113533155845,0.004537859416190972,-0.000235551457455581
12,860000000,-0.033952977648788,-0.0010984049858214452,5.12564613118296e-0
12,865000000,-0.04102076151571389,-0.014261945824719928,2.405820142694964e-0
12,870000000,-0.044350539713341915,-0.01629717428364759,0.0002613773829644681
12,875000000,-0.04134292899597535,0.008321241121567898,0.000422981312398511
12,880000000,-0.025623743879493767,0.004297100406093291,0.0001288234531359666
12,885000000,-0.050179657374229775,-0.004298820141086961,1.913824033826725e-0
12,890000000,-0.02767657280939119,-0.005545257224702683,0.000296868067795346
12,895000000,-0.029152601833788556,-0.0012929484443123293,-8.025762361112465e-0
12,900000000,-0.056844735710924375,0.028018755149994235,-7.732956369153184e-0
12,905000000,-0.05001311393250241,0.015685149550804266,4.010990566288511e-0
12,910000000,-0.06111933014474588,-0.0379762777054359,-0.0001516490503510498
12,915000000,-0.043799895461422156,0.0017491858383671005,-0.00043635770095846
12,920000000,-0.03791360081934221,-0.003913093121762827,1.1714857182189503e-0
12,925000000,-0.040203619447146496,0.015119449539747731,-0.00018576105327869
12,930000000,-0.039306863597845555,0.0025330322838225602,0.000173074900091424
12,935000000,-0.06932469054684473,0.008488647884405004,-3.285820684919212e-0
12,940000000,-0.05792718252719372,0.0018824044431785913,8.396842520430518e-0
12,945000000,-0.04485472603699188,0.03284394561759424,0.0001623984714741292
12,950000000,-0.057458883997427955,-0.01793032681636486,-0.0001302274284911733
12,955000000,-0.04607560131230436,0.016247684076800106,-8.072659312516277e-0
12,960000000,-0.047402692749392,-0.01199861903995851,-4.49553904109985e-0
12,965000000,-0.045173680110932674,0.003376331008778545,-0.0001198122483708989
12,970000000,-0.0320876690911743,0.0007710742066650489,7.394263956713919e-0
12,975000000,-0.03161657837868938,0.025155202267774162,-0.0002909547445000628
12,980000000,-0.04463811946852836,0.0029661457055540088,-0.0003083574074276297
12,985000000,-0.07185846546144621,-0.030124610833908508,-0.000143632803850000
12,990000000,-0.043077678838638875,0.0013777853127357532,-0.0001165873147596795
12,995000000,-0.057229716794135466,-0.024249784828723385,7.918413897463649e-0
13,0,-0.024898085816372744,0.0012949218116779329,0.0002232784431488635
13,5000000,-0.04999385291132352,-0.0051219872035637515,4.94799884829794e-0
13,10000000,-0.024365631346114892,-0.007408658797667099,6.207102182665195e-0
13,15000000,-0.0466135630305598,-0.008956739107688065,0.000210940972144272
13,20000000,-0.048764585687590616,-0.0032568018440908733,0.000420160093434789
13,25000000,-0.030470741140395895,-0.01367979597370001,2.7788858398448868e-0
13,30000000,-0.0241669179539047,0.0027918995947394097,-0.0002978411120728540
13,35000000,-0.034034084475836654,0.006548359623957283,5.957837847780088e-0
13,40000000,-0.049737545950485365,-0.029047785646163362,-2.2716799874087576e-0
13,45000000,-0.07395568973497378,-0.024917084975829167,0.00050853552901468
13,50000000,-0.06278833222957714,-0.03191458736182087,0.000164106109219068
13,55000000,-0.040985934811988124,-0.011397889473075837,-0.0002067009994545055
13,60000000,-0.04208046428659363,0.012066782952551583,0.0003688769590368427
13,65000000,-0.008920922462020663,-0.006529299304719222,0.0001323090999830600
13,70000000,-0.07710141418049452,0.02968813623631464,0.000545058494267213
13,75000000,-0.00975231743187395,0.02386611390676283,7.674490585169268e-0
13,80000000,-0.061060452048805475,0.017077603047664265,0.0002036241870467480
13,85000000,-0.06003576410551612,0.0130569871092917,-0.0002006230427448131
13,90000000,-0.06724669180048526,0.0045009318701771635,-0.0002438388577974297
13,95000000,-0.0571146306274191,0.017802511804144203,0.000105783074619404
13,100000000,-0.0528774826682421,0.0027010871926794293,0.000170681359201836
13,105000000,-0.027273083564328247,0.016369620352549304,-0.000192797863749958
13,110000000,-0.02202784299118397,0.022746572407698458,5.874586567011347e-0
13,115000000,-0.04388900664221295,0.01121261863166422,0.0001404809597399589
13,120000000,-0.05093829745092001,0.00929313803617569,-2.3435681902502119e-0
13,125000000,-0.028297195909237606,-0.0016806996513906618,0.0001109162062408423
13,130000000,-0.03867033821095867,0.010345873552186495,8.618085346402004e-0
13,135000000,-0.05591631633581416,-0.01680435802108802,-5.7657720562520276e-0
13,140000000,-0.05102875533097501,0.01567431934372199,5.42837845220916e-0
13,145000000,-0.05356234972656055,-0.0018331421143916791,-0.000606240834835096
13,150000000,-0.05069782447423221,-0.013125025498848975,-0.0002114629940485811
13,155000000,-0.04802822208752417,0.008290132182553232,0.0002025004339050363
13,160000000,-0.02739059704662936,0.00641708755695253,-0.0001623630805343863
13,165000000,-0.05659897717460095,0.020797831917872035,1.6749182518746453e-0
13,170000000,-0.042462824226024806,0.0048590834209162525,7.873370061871403e-0
13,175000000,-0.03242873577684062,0.00860488397361875,5.72538630269813e-0
13,180000000,-0.07138763595704847,-0.008428964912296806,-3.735584439742673e-0
13,185000000,-0.0495825058380166,-0.02584905863065054,-0.0001232888017477373
13,190000000,-0.07808079881328224,0.03577166254486323,-0.0002574459982690973
13,195000000,-0.0787173437755814,-0.0414403277960858,0.000436371303311556
13,200000000,-0.0689314719424783,-0.001975343500382177,-0.000106245530053724
13,205000000,-0.04495312710511241,-0.028997554667051666,-0.0001997068592146434
13,210000000,-0.0417432345428708,-0.010786157068336239,0.000224710751590904
13,215000000,-0.045587798814134675,0.011243479029383784,0.000317261450917856
13,220000000,-0.009542378178083337,-0.017872803668698537,0.0004657157579124898
13,225000000,-0.06623632909669083,-0.0012707138067302864,0.0001399849789613423
13,230000000,-0.08583255299518067,-0.01937720115945721,0.0001255193471938855
13,235000000,-0.08340414220240243,-0.004861556141076361,-0.0001243752948764893
13,240000000,-0.05768526038482489,0.00230479648640969,0.0001866232344657645
13,245000000,-0.07522136410525153,0.03152732222139766,3.065341926415196e-0
13,250000000,-0.059209267507768136,0.0063825009618281,0.000271329155607609
13,255000000,-0.06133916777492837,-0.0019933064959152197,-0.000238111937792707
13,260000000,-0.08415590991540081,0.010944070002039136,6.527778416681921e-0
13,265000000,-0.06708436501188375,0.03327294113631562,-0.000215792079453478
13,270000000,-0.06746421765545502,0.0002967373316404671,0.000192447858502291
13,275000000,-0.03192960077849235,-0.0024437530575449366,0.000225258688031810
13,280000000,-0.10127484279711566,-0.023648121814272373,-0.0002045503532785276
13,285000000,-0.05446535101246352,0.011320866589866183,0.0002296283931515966
13,290000000,-0.06711315171905408,0.00035254777987436304,-0.0002914287861016598
13,295000000,-0.06257594929817284,-0.013746895379071786,7.92666155857861e-0
13,300000000,-0.05629144454217849,0.015629393809697995,6.367626524230486e-0
13,305000000,-0.07094626791311631,0.027822440909339205,0.0001635298050567122
13,310000000,-0.08046218459957319,0.029589651291021146,-0.0001242574247130445
13,315000000,-0.05538819357381605,-0.005345302050884122,-0.0001290790996226449
13,320000000,-0.097771667917713,-0.012208161526025605,6.336385758293656e-0
13,325000000,-0.052404985939951645,-0.02224442399693048,3.980130302144089e-0
13,330000000,-0.09879731707606751,-0.009977658450147768,-0.00026140350414833
13,335000000,-0.06351257672727223,-0.0005468188568230794,0.0002374474150437085
13,340000000,-0.08356971586405297,0.009676272624002806,-0.0001534664318925737
13,345000000,-0.06169263491766057,-0.004301401718508586,-4.1885129757610394e-0
13,350000000,-0.05842437925572205,0.018446975542657975,-0.000395862418367487
13,355000000,-0.08141751367589872,-0.0019387333502332862,-2.867702961944776e-0
13,360000000,-0.061287424218663365,0.04251621596281645,-0.000314263967528062
13,365000000,-0.05482752514457071,0.008450314778162485,4.726935574730071e-0
13,370000000,-0.08318732025284024,-0.02644758349929776,-9.159469708854584e-0
13,375000000,-0.07996880460744835,0.012292430392705327,-0.0001838738215545856
13,380000000,-0.10137076627169687,0.010286642572328027,-5.733569131045452e-0
13,385000000,-0.04890967106845062,0.0010475764486797907,-6.86067064885585e-0
13,390000000,-0.059131487298881305,-0.004680588328051859,4.340629550256944e-0
13,395000000,-0.073781125313964,0.004280258899948753,0.0001021268411139760
13,400000000,-0.026025971922036033,-0.03482032050267271,-6.9252667303194625e-0
13,405000000,-0.057033254506646536,-0.020590694440128218,0.0003884874394768342
13,410000000,-0.06423656313858947,-0.025732091855089206,0.000342517360436846
13,415000000,-0.05465478638805642,0.016912484351706284,-0.000179955070577988
13,420000000,-0.04304839899432064,0.007245429675803852,4.876353433439417e-0
13,425000000,-0.0389431450265251,0.000498494528622063,5.226095222117533e-0
13,430000000,-0.05856496570610895,-0.022332727211750013,-1.8267374375275277e-0
13,435000000,-0.08372028800038683,-0.01529770487066873,0.000260245300588092
13,440000000,-0.047249513829897206,0.05668088880522699,-0.0001240242819909184
13,445000000,-0.050037697577560054,0.03947268087808064,0.000122496152259827
13,450000000,-0.04135511492465617,-0.010190267950454435,7.253790966296082e-0
13,455000000,-0.08705463845899047,-0.03424954851244806,0.000188780489981979
13,460000000,-0.050001931319676604,-0.007686616616022788,2.5262802806571275e-0
13,465000000,-0.03738503177008187,-0.013748893760145672,-3.1180804636961515e-0
13,470000000,-0.0747670708932423,-0.03388646322333877,-9.411031472111194e-0
13,475000000,-0.04935058146193472,-0.006962855821866832,0.0001099795978162814
13,480000000,-0.07758812634493786,0.020521766883048322,-0.000342645500489662
13,485000000,-0.05153072386367217,-0.00650512732510628,0.0001141458831851474
13,490000000,-0.020725709278390986,-0.008155166697589011,9.5606912689983e-0
13,495000000,-0.06103740636025274,-0.011349994104038606,-0.0003256227313754754
13,500000000,-0.0969247377805015,0.012388802874474334,-9.11196296381621e-0
13,505000000,-0.04178040918329547,0.03215312691745346,7.552864791169046e-0
13,510000000,-0.03949440112443652,0.007886828971723107,-0.0001798799015940475
13,515000000,-0.022513814124742383,0.006569649769318765,0.0001873426064728308
13,520000000,-0.06308616227125868,0.011055345504063108,-0.0004547396266411146
13,525000000,-0.05785208770305425,0.00026486933523440516,-5.8698834184319784e-0
13,530000000,-0.08382611344638864,0.0004902741693389052,-6.256092576952094e-0
13,535000000,-0.03140261010463341,-0.012627302642603592,8.940489007053241e-0
13,540000000,-0.07644039969194216,0.0072745842048312775,-0.000176368103050900
13,545000000,-0.05524389549879861,0.013458082823765139,-6.888442039077884e-0
13,550000000,-0.06580198064901993,-0.007585493623368371,-0.000384143703113625
13,555000000,-0.08469163424639259,-0.01717269363356092,0.0001828564485833500
13,560000000,-0.0524202944934605,-0.0023350530043680295,2.4499014008861553e-0
13,565000000,-0.026666984829037232,-0.015102071553166847,0.00031062853260204
13,570000000,-0.049829506772846976,-0.007249692707252537,0.000158061939378648
13,575000000,-0.05386214408928389,-0.01919657486816311,-7.367398735845686e-0
13,580000000,-0.07662940373416496,-0.015532914237907373,0.000389533590323444
13,585000000,-0.03497608053841911,-0.010362686127349235,-2.6829334670082662e-0
13,590000000,-0.08638133745896298,0.02249479201438132,0.0001305238670789731
13,595000000,-0.0701154683736006,0.034386001090122215,0.0001751968310486464
13,600000000,-0.047448015024246934,-0.0006681202246513637,7.317844181967631e-0
13,605000000,-0.06028998621939212,-0.026546041119733715,5.800451031712635e-0
13,610000000,-0.06159476840337258,-0.03163359192867463,-0.0003759490875988264
13,615000000,-0.057053577907910574,0.002007185532492387,0.0001169584844766370
13,620000000,-0.04859045673574807,0.011613069017780007,0.000163376333666524
13,625000000,-0.05849270669044326,-0.01362362230585674,-3.896414615868385e-0
13,630000000,-0.03590660251703376,0.01586686552546695,0.000333718966715947
13,635000000,-0.06402003994156512,0.011355395072684465,5.609669235370086e-0
13,640000000,-0.10915207105436867,0.02078451695803466,-0.0001567280724160546
13,645000000,-0.05792960047787804,0.010605773389096521,-0.0001634054953764378
13,650000000,-0.042938704677424416,-0.00752445059274067,0.0001729373350510518
13,655000000,-0.04243401707377409,0.025460515994660784,0.00024668853402667
13,660000000,-0.033345440682192674,0.012123113524532311,0.0001542677886294507
13,665000000,-0.06075498957315564,0.008377756954362414,-6.415194577244783e-0
13,670000000,-0.03214582562957971,0.009617774829600616,-0.000326344389529343
13,675000000,-0.0546035856430151,-0.022156572658852118,8.463173719199596e-0
13,680000000,-0.03240343354613322,0.01592383216047273,0.00034173471452657
13,685000000,-0.0637523210367748,-0.011407456742090132,4.229623424668491e-0
13,690000000,-0.04335985315287261,0.00107769019996994,0.0004874095052350934
13,695000000,-0.028935274837525553,0.028785258794831473,0.0002266179554004615
13,700000000,-0.06460018277694454,-0.024865084245274265,-2.681682103976123e-0
13,705000000,-0.0084061872868662,-0.024462402325836696,-0.0002227264230877895
13,710000000,-0.04560707668807613,-0.02885198631508733,-0.0001679123595626280
13,715000000,-0.07964314502059902,0.00747627344809097,2.2897933209765595e-0
13,720000000,-0.04278591665368842,0.005951982722293126,0.000131997689000893
13,725000000,-0.06602201809107895,-0.026753666295526002,0.0001761763549828026
13,730000000,-0.04239451618888963,-0.004007098583463268,-0.0001297153885251278
13,735000000,-0.04698140593885684,-0.007277138304708546,-1.9667561987081308e-0
13,740000000,-0.06681378963002918,0.019485292469649654,-0.0001918562822215535
13,745000000,-0.06272239572163245,0.03642917817616432,4.827269799075789e-0
13,750000000,-0.03909583594797415,-0.004878247978350405,-0.0002311274125024524
13,755000000,-0.026865695963332784,0.0029400716298272093,0.0001484723521306106
13,760000000,-0.03680473270332248,0.007920801856339336,0.0003377676786599041
13,765000000,-0.04844565001425926,-0.016433166803924527,-0.0001666448401199482
13,770000000,-0.023860040001338574,-0.029336972947910583,-4.732076494350363e-0
13,775000000,-0.044288340989219944,-0.016099074264967296,-2.0865671403928034e-0
13,780000000,-0.05723256380105382,0.0024013827756909434,-4.436404704440928e-0
13,785000000,-0.05868650847524062,0.011554003338716557,-3.5954399233115996e-0
13,790000000,-0.03529254456766596,-0.00205048538987008,-0.000414675550112462
13,795000000,-0.03518264993845166,0.03919599150129852,7.250476936441271e-0
13,800000000,-0.020600742635170078,-0.0030687166176162867,-0.0001198517128192379
13,805000000,-0.05886106745867395,0.02802273067438767,-7.76272862184762e-0
13,810000000,-0.04920693852749484,-0.018373890149422572,-5.7260135145455486e-0
13,815000000,-0.013616108515065659,-0.025871583149867344,0.0003256652741419524
13,820000000,-0.045935909989129206,0.03860394348277783,8.935158920405048e-0
13,825000000,-0.051552116580094155,0.014708962283892043,-0.0002317827134188557
13,830000000,-0.034522185531093215,-0.0012808874569749432,-0.000584251614211628
13,835000000,-0.08634579456233711,0.009129376317781048,-0.000121766751008803
13,840000000,-0.07232147419498339,0.004075707383330741,0.000275981533259700
13,845000000,-0.056738047463420455,0.024809418814935407,0.000224334532320363
13,850000000,-0.0371524760672893,0.04293079592289094,-0.0001991798021286028
13,855000000,-0.0651838209211882,-0.013253124197553534,6.975766009751593e-0
13,860000000,-0.038213292161401624,0.031053565052435835,-0.0002316375639629479
13,865000000,-0.06582458830374005,-0.013175095149780915,-0.0001013458638457204
13,870000000,-0.04346375118812717,-0.015214659804070971,-5.6741515710488864e-0
13,875000000,-0.010700024501131146,-0.026027371158616443,0.000123816262494602
13,880000000,-0.044279087435555045,-0.0042312701420077654,3.6620744137824356e-0
13,885000000,-0.04348221157383472,-0.012184906392992217,-0.0001495043865639022
13,890000000,-0.09556256772465854,-0.021982326981461114,0.000287820115907025
13,895000000,-0.019079991160817822,0.004116948511275066,0.0001417869196050444
13,900000000,-0.053376578636299604,-0.004780876679430063,3.082599222585492e-0
13,905000000,-0.05955964232695621,-0.015224376020178322,-0.0001241727843293679
13,910000000,-0.04945336560255963,0.015062213478074822,9.071264827085805e-0
13,915000000,-0.06313550089328139,0.005804087996951858,-0.0001751712789558799
13,920000000,-0.08201953052045183,-0.0278273094684701,-0.0002332794675833033
13,925000000,-0.027937553832362183,-0.012054798154594187,-0.0001137433369545233
13,930000000,-0.08825449465910035,0.00225604216632152,-0.0001149522472627147
13,935000000,-0.06087885436721254,0.025813047489156582,0.000258418997003130
13,940000000,-0.06202110622143138,-0.007698274105567315,-4.1695483959030186e-0
13,945000000,-0.08038455739881482,-0.03719689515699168,-0.0001556814494995354
13,950000000,-0.062293855371061004,-0.007241305671891355,0.0003431450049819067
13,955000000,-0.04403306166293615,0.02884802921433948,-0.0002742845835933136
13,960000000,-0.07332347095125968,0.006380672250594677,0.0001516609746081412
13,965000000,-0.07371550232439948,-0.006971424216075673,-0.000246346553320840
13,970000000,-0.07297449176055253,-0.035410829016077346,0.000161088969849037
13,975000000,-0.037078797593460125,0.015710317315964242,7.44038777767568e-0
13,980000000,-0.055197097435866246,0.00604925155217229,-3.907027827202434e-0
13,985000000,-0.06947526511691307,0.013594556734451035,-0.0001213942946619013
13,990000000,-0.05048229071853111,-0.019420569381214954,0.0003887671186012172
13,995000000,-0.07176523581740359,0.030626094152419913,1.0797271598880168e-0
14,0,-0.07760550991769331,0.006764068258260441,4.5003249577171215e-0
14,5000000,-0.046140334633493034,0.030945514277060854,0.0001626247340483147
14,10000000,-0.06109873173131415,-0.0011185480645402473,-0.0001011157093652341
14,15000000,-0.0420369789397554,0.024437181921037936,5.633280718885863e-0
14,20000000,-0.057330323538620186,0.020311856450779316,-7.522831272412961e-0
14,25000000,-0.06581224333906838,0.01871810077866897,1.2290338309678314e-0
14,30000000,-0.06324917001331391,0.006586588192989507,0.000182921458684940
14,35000000,-0.04750552569280396,-0.021274989831404363,-0.000191328548929910
14,40000000,-0.06081563179609957,0.0017781215474820147,0.000247562063917078
14,45000000,-0.043495077331725626,-0.008722124979986985,3.422769763408528e-0
14,50000000,-0.0838740215103391,-0.006056832540105493,0.0001731786836540087
14,55000000,-0.07413929505813104,-0.0024858970358659486,4.5059093964858115e-0
14,60000000,-0.05490043547376484,0.021480497800339227,-9.560745883763948e-0
14,65000000,-0.0824426553266299,0.031131986658283414,-1.716819536771598e-0
14,70000000,-0.06137596658787642,0.0018017366406669366,-0.0001016448748199333
14,75000000,-0.05749745890373199,0.018789160536868767,0.0001824176455638145
14,80000000,-0.04456530763327576,0.003320385033612442,-0.0002104232321825580
14,85000000,-0.08793285466845815,0.005261921257251742,-9.928751152155003e-0
14,90000000,-0.04974390826449434,0.006366804146374716,-0.000216782245304824
14,95000000,-0.04997594192205388,-0.014740824027315434,0.0004025765624602010
14,100000000,-0.06510435256066052,-0.013174423292792154,-0.0001744659841447881
14,105000000,-0.05767028623118822,-0.010830122861101374,2.0593216336216574e-0
14,110000000,-0.03234701701769098,-0.01611904617483514,6.640080245642783e-0
14,115000000,-0.04425655087482724,0.0052527304609630105,-2.4556907554862252e-0
14,120000000,-0.03085847933798364,0.02854096003120413,5.9909152656134544e-0
14,125000000,-0.07398411305739759,0.005170612060333979,-0.0002261116211922984
14,130000000,-0.08412847324645395,-0.03316754127051439,0.000367992323359801
14,135000000,-0.06562844033692411,0.03727074621655112,0.00030684019822951
14,140000000,-0.08703045586388877,-0.007779427419810854,0.0002180043755739554
14,145000000,-0.05483625832907234,-0.011847946617150353,0.0001717687202312117
14,150000000,-0.06638499121599584,0.009574810358508776,0.000304741489831020
14,155000000,-0.03133801123190964,-0.016186381187807526,-0.0002466420912196952
14,160000000,-0.06570267159472291,-0.009647132176559266,5.355120760569259e-0
14,165000000,-0.030091661580730573,0.0038857158985853364,0.0001823931169289833
14,170000000,-0.035932005895721195,0.003825213102873973,9.454773263165069e-0
14,175000000,-0.055559804539370206,0.023573729935590135,3.218781785998616e-0
14,180000000,-0.06391986070272286,-0.006912442355430979,0.0001675210116491333
14,185000000,-0.06452827165699772,-0.003909826687870859,-2.653958888143408e-0
14,190000000,-0.07369818489828397,0.026966463792672986,0.0002236950765295885
14,195000000,-0.04227773672633704,0.013608355329383738,-0.000312097756420229
14,200000000,-0.05827455309851497,-0.010657604656157433,4.8554643829275534e-0
14,205000000,-0.06695972523920037,-0.030507527881267458,4.5860469620211206e-0
14,210000000,-0.06440891741596388,0.012300514143539608,-0.000251116620579757
14,215000000,-0.05068009073094845,-0.002203272971109668,6.018868046498566e-0
14,220000000,-0.05421859424816829,0.011446929769606267,-7.912117920934827e-0
14,225000000,-0.04828595595734525,0.010615591873173154,-0.00046548159797419
14,230000000,-0.050980546596419984,0.01555822997620624,0.0003070541305080363
14,235000000,-0.040174698913066006,0.018769871996758135,0.0001590017747741870
14,240000000,-0.06753854276264312,-0.019216828830207994,2.8866502055573653e-0
14,245000000,-0.08260798453230778,0.009655010135039032,-0.000190281239658551
14,250000000,-0.05806983073978219,-0.00927929501138899,-0.0002107665317936299
14,255000000,-0.03983936187712527,0.008792792142134655,-0.0001503555284745038
14,260000000,-0.04341500886334441,-0.0034128283256336205,3.187940733518379e-0
14,265000000,-0.07348047919590461,-0.011006890021459761,9.553548323606702e-0
14,270000000,-0.026030576377624837,0.005088162111488817,0.000246900231723611
14,275000000,-0.03269446858987397,-0.007791384025419653,-7.159416051044263e-0
14,280000000,-0.05471455601239828,-0.0031992088214946577,0.0001656948641025850
14,285000000,-0.05983815560128028,0.012120550283643691,-4.768216961940476e-0
14,290000000,-0.0474838903970534,0.036971289625676446,-5.8153956020370436e-0
14,295000000,-0.043440896894926785,0.005480479173597799,-0.0002790590230194312
14,300000000,-0.03971450045255511,0.034851373260462906,-5.808892231997791e-0
14,305000000,-0.05201969951602194,-0.004415372626774816,0.000272798657692198
14,310000000,-0.04995318873805893,0.012495547794770792,9.76849496021637e-0
14,315000000,-0.06683820802927849,0.005562428273569272,-0.0003158188173507274
14,320000000,-0.045257898304713835,-0.0022098465456469023,0.0001648539235145708
14,325000000,-0.044105308845123425,-0.013690760758776375,9.621731071914626e-0
14,330000000,-0.014481338037929892,-0.03763905114881655,-0.0001233047969655154
14,335000000,-0.04209763315659651,-0.020690491565673135,0.0001962636153111923
14,340000000,-0.0644469975268645,-0.016607076008191574,0.000362584382322092
14,345000000,-0.03600088782740292,-0.0013769309320832252,-0.0001813500482976135
14,350000000,-0.04336709440226377,0.0037637043942695837,2.0417095288206167e-0
14,355000000,-0.04681022875068591,-0.012666072248589925,0.0001264059478401656
14,360000000,-0.052512020005345474,-0.005372884741197198,-5.8109177361110684e-0
14,365000000,-0.05845936996081048,-0.03142616115017547,0.0003436476154809265
14,370000000,-0.05552334123515544,-0.0011445725655597923,-1.2088160698437239e-0
14,375000000,-0.08020331805223167,-0.015428729608101476,-0.000307961767221246
14,380000000,-0.06414705997259185,0.004068097299837953,0.0001078266096516500
14,385000000,-0.03176431019749708,0.006825077251132512,0.0001243559858383284
14,390000000,-0.06126480932349707,0.0005963101181664856,-0.000394209648742583
14,395000000,-0.06670311958505903,-0.008775849567288937,0.000261284445196880
14,400000000,-0.07031238936510843,0.018551883386471676,0.000116097262527093
14,405000000,-0.03257103656678982,0.002941494729202587,-2.7724760274895778e-0
14,410000000,-0.052800279051545905,0.02500538225130789,-7.915473105321993e-0
14,415000000,-0.09041010113152911,0.027856862120169086,-0.0001130628830861137
14,420000000,-0.04627939383830545,-0.0019895259544582032,1.7839955705871866e-0
14,425000000,-0.015842076329438702,-0.014771513764249934,0.0001141868792829499
14,430000000,-0.05294385771760682,-0.01320694104476656,2.4327309603101236e-0
14,435000000,-0.053946492638605535,0.0002630778372737768,7.89662256792444e-0
14,440000000,-0.06677014662423164,-0.005437850889167813,-0.0001305276184803815
14,445000000,-0.06847332489806546,0.055930281765157526,1.8739461631147013e-0
14,450000000,-0.06571777825304115,-0.00766260641870433,0.000120205203365064
14,455000000,-0.041830648719540384,0.004639901933312042,-0.0002151278173575184
14,460000000,-0.056986043593840685,0.024087547385310572,-0.0002045421596884844
14,465000000,-0.07992941891194118,0.030039665485755773,0.0002397703846402323
14,470000000,-0.026885411668720948,0.012982780474597458,-7.403815503350857e-0
14,475000000,-0.06198936236255316,0.0009903449576920858,-0.0001211694274253130
14,480000000,-0.06821094542766384,0.0022267787894770606,8.733410127496301e-0
14,485000000,-0.050905812142152715,-0.004744697253845943,2.482272109701216e-0
14,490000000,-0.06787327183431412,-0.002569293719038107,-0.0001432876487681343
14,495000000,-0.04706421857793904,0.011657431002936853,0.00028208490662328
14,500000000,-0.07412779666208133,0.007725355417804249,0.0002911048816312786
14,505000000,-0.04525703288917765,-0.0008559981125154977,0.0001781093960331857
14,510000000,-0.06336173111254587,-0.026504829427365536,-0.000397763034209138
14,515000000,-0.04926476922826194,0.02484798147064741,-0.000351670752089293
14,520000000,-0.06326007734877345,0.02118739735512286,-0.0001780044360129208
14,525000000,-0.06030253029099984,-0.018829614768068846,2.158221234134659e-0
14,530000000,-0.09452079596119659,0.015618551071485728,5.8745225605933174e-0
14,535000000,-0.044699966656150905,0.022705655119521717,0.0002191111795052601
14,540000000,-0.08613819029645844,0.00492766225100705,-0.000173028494910479
14,545000000,-0.05488612052189491,-0.0011596686778249008,-0.0001206757434827183
14,550000000,-0.08464439487634118,-0.013739824890187196,-2.4507932491900497e-0
14,555000000,-6.714131895389818,0.018252168722137176,4.3158315429598805e-0
14,560000000,-0.29627796735726813,0.016405567799283274,-0.0003536592453527542
14,565000000,0.08743853780270497,0.010080911091669233,-0.0002396736545181654
14,570000000,-0.03662201234030806,0.0013679120662903864,0.0002040002365877472
14,575000000,-0.16741214332064258,-0.006726969104156068,-0.000334819855193031
14,580000000,0.06303936346050729,-0.006894790058708486,0.0001427966060205676
14,585000000,-0.19501916877537206,-0.017543905483847638,-0.000223556446080896
14,590000000,-7.0424152014515995,-0.009386691454238299,2.122682188390905e-0
14,595000000,0.11474322285642041,-0.002786574138554081,-0.0003233554784056584
14,600000000,-0.08592383203726522,0.012027899211050613,-0.0002930609920060553
14,605000000,-0.054500540870881894,0.005818717833928263,-3.5947492642684046e-0
14,610000000,0.034496320604081324,-0.009607539239280989,7.39806008305639e-0
14,615000000,-0.13469637983798202,0.014276899902676287,-0.000129009614988650
14,620000000,-0.04416835220908555,0.01776243865981504,-6.492096768363576e-0
14,625000000,-6.968319258422739,0.008868096766046158,4.7339292561314105e-0
14,630000000,-0.011448344084588776,0.017460220942783503,-0.0003520746612556085
14,635000000,-0.022718445293367848,0.03138407904368592,2.5858674881231407e-0
14,640000000,-0.04199308969225124,0.003174098548501538,0.0003090045128087628
14,645000000,0.0038455590897407774,0.0005992690056639798,0.000179283789499073
14,650000000,-0.11904343426491965,-0.030421515372833156,0.000378593727077966
14,655000000,-0.031301677217140736,0.008801178701620189,-4.809387549072893e-0
14,660000000,-6.999006598383372,0.0285031055445089,-0.000287959743422196
14,665000000,0.01771375046237713,0.004678873981656911,0.000506762901334100
14,670000000,-0.034866724875224124,-0.012971488895854078,-4.56033914466782e-0
14,675000000,-0.06841381335376623,-0.0114729585554201,3.4043220305259616e-0
14,680000000,-0.060248838604794894,0.01834557843884433,0.000695230107297304
14,685000000,-0.06183202517727452,-0.016649663528140284,9.020439041174923e-0
14,690000000,-5.732637988012768,0.022861958799806924,0.0001134558837704720
14,695000000,-1.3139961682147905,-0.010295435041182032,-0.000174159424165734
14,700000000,0.033442488658590154,0.009115799100764115,-5.820857260644481e-0
14,705000000,-0.03252024999250053,0.009495133671015937,1.984778322199061e-0
14,710000000,-0.02142343602326721,0.006338138304439447,-0.0003124922819588469
14,715000000,-0.04755579700498283,0.006531720162907673,0.000156323691310642
14,720000000,-0.06276515719173728,-0.016209586034675115,8.843322202277069e-0
14,725000000,-6.884197253872769,-0.012625483230714139,7.204624162814171e-0
14,730000000,-0.14724161123630664,-0.010150031088779645,0.000336234785494843
14,735000000,-0.01585058681056145,0.013402272410118397,0.000286013331071860
14,740000000,-0.0416643416403325,-0.01710979561006449,0.0001319618549371775
14,745000000,-0.055507360052315186,0.005168289408923437,-0.000345930913521537
14,750000000,-0.0525901866520227,0.016602002497281818,4.4246635547646275e-0
14,755000000,-0.06964392959057251,-0.00020479028939540277,-3.09376040077207e-0
14,760000000,-7.014562626826442,0.013465336538767036,-3.895360179138858e-0
14,765000000,0.06471208247690631,-0.009847011766456163,-0.000228033140907496
14,770000000,-0.008942148369403708,0.01509751929103996,-9.138800864115164e-0
14,775000000,-0.04442371627094741,-0.03889349727756382,-0.000182365851654891
14,780000000,-0.05394716438587066,0.06261217718479749,-0.0002919103705906157
14,785000000,-0.08218455736749779,0.008071498423299208,-0.0001245448996987971
14,790000000,-0.04479985010157589,0.012874480688449066,0.0001482361334678391
14,795000000,-2.5292935097139604,0.0014601531320780946,-0.0001900758087902177
14,800000000,-0.01863052064824859,-0.010499520803121023,5.4822915848560284e-0
14,805000000,-0.05359418232980177,-0.0022472850088243648,0.0004011668150428293
14,810000000,-0.04200819351238082,0.025866104127985113,0.0001644965577451303
14,815000000,-0.07230101289041124,-0.020515252819598487,-0.000230686978413998
14,820000000,-0.0675349138687287,0.0005953413708152948,-9.511909576264416e-0
14,825000000,-0.04970346975912157,-0.04053354818173928,2.2131512317741983e-0
14,830000000,-0.09149848428742502,-0.005186950295021277,4.030238430031731e-0
14,835000000,-0.0844559392792672,-0.013075429869289322,-0.000346242394874124
14,840000000,-0.05454473129561711,0.014468461610338082,-8.165270370008643e-0
14,845000000,-0.07632021224962668,-0.0013238514956924283,-1.3454846617896477e-0
14,850000000,-0.052232136090260124,-0.001296466437555188,-7.633735806441389e-0
14,855000000,-0.07034604358558202,0.029073941824066134,-0.0002025332267893285
14,860000000,-0.0958144759883498,-0.012378477572217524,-4.1008948620933024e-0
14,865000000,-0.07896390512509831,0.014293517728415328,-9.544224429167655e-0
14,870000000,-0.05325086854707592,-0.007689300425548592,-7.4858499371999e-0
14,875000000,0.021829096532285867,-0.0019087198642557767,8.059973045568169e-0
14,880000000,-0.15499479147705786,-0.005761994623541202,6.697387121750128e-0
14,885000000,-0.039609477920988366,0.008295206196320971,-7.588040312027509e-0
14,890000000,-0.07345079436338119,-0.0007068537307707795,-3.710560585496531e-0
14,895000000,0.014585549245697237,-0.0010810002540679175,-0.000257831798178321
14,900000000,-0.09703647974711481,-0.01025741072857809,-3.4932700040115174e-0
14,905000000,-0.07413333361387481,0.008732726660204948,9.182836514947934e-0
14,910000000,0.0008723422756557664,0.014846203776269329,6.801226764085715e-0
14,915000000,-0.16021238067631996,-0.002760803942774528,0.0002248273643684508
14,920000000,-0.029703985304196698,-0.0155191433205562,3.7975834408792266e-0
14,925000000,-0.1424105150700131,-0.012050103939675408,-6.483105859411002e-0
14,930000000,-0.08314777474502372,-0.015751961334670137,-0.000261189922026119
14,935000000,0.016849603630759626,0.004407657298652666,0.0002377702446422587
14,940000000,-0.13359442284797135,0.0013131336127125714,-1.6154172768381986e-0
14,945000000,0.015607269725557177,-0.007764660481312239,0.0002236336432894838
14,950000000,-0.07238245531591715,-0.01833426605849633,-1.6923814132593074e-0
14,955000000,-0.10092306971698176,-0.019259095167675315,0.0001444854189469197
14,960000000,0.03507332818987981,-0.02194481977495369,-7.094812817077641e-0
14,965000000,-0.0771437588930935,0.018598494404465052,-0.0002126532490179171
14,970000000,-0.08046766891551511,-0.02544078248650943,-2.0068783041321296e-0
14,975000000,-0.04103044457806318,-0.025868298062051636,-3.849719052188452e-0
14,980000000,-0.046633006407990216,-0.0016598641609184457,0.000266451553141698
14,985000000,-0.06694761795368824,0.0037132408675550647,-5.376950931448243e-0
14,990000000,-0.04822546686536464,-0.01895157258816241,0.000162476234367057
14,995000000,-0.040443936284271564,0.005409252189336201,-2.333143609924062e-0
15,0,-0.05968681618042869,0.00037729357805966004,0.000254753799161882
15,5000000,-0.05538692955468422,-0.019124980112255288,1.2673532783980854e-0
15,10000000,-0.029844170866561822,0.015084115337394254,9.640272361960598e-0
15,15000000,-0.06434950033438322,-0.013702615442162917,-3.654206987964834e-0
15,20000000,-0.06495464594235092,0.009117994003310679,-0.0002396489460668997
15,25000000,-0.04191989408056339,-0.002327873925809725,-8.948718271567864e-0
15,30000000,-0.06892406547593574,0.006924321349673024,-0.0003676470329663897
15,35000000,-0.06918173102032252,-0.0019298962477294441,5.55397045198971e-0
15,40000000,-0.04705412880310986,-0.022239555340992083,-0.00029546868734085
15,45000000,-0.07710853540806935,-0.015608016872953146,-3.647843648696979e-0
15,50000000,-0.03219126548234769,-0.018714679822110763,0.0003101867445907123
15,55000000,-0.017340217724988647,-0.013639346345227305,-7.66927615534066e-0
15,60000000,-0.04445275417942238,-0.009772825951687889,-0.0001458740336558490
15,65000000,-0.031863160383189315,-0.015307370740137766,0.000135233276220839
15,70000000,-0.061208002173657385,0.00753918647168264,-1.4070755638473411e-0
15,75000000,-0.05118874091983874,-0.02711520744877412,0.00048841580000756
15,80000000,-0.04223654324958566,0.023084960496818217,-7.085959771133746e-0
15,85000000,-0.06272929555809044,-0.023193335314939778,-0.000303735593948718
15,90000000,-0.07630378093150653,0.021081040295753424,2.2587042863639788e-0
15,95000000,-0.03922854175307712,0.011749252604739403,-0.0002262360080112415
15,100000000,-0.039686885962633325,0.02399097674453485,0.000542791284025035
15,105000000,-0.04362633347669563,0.020398234695802004,-7.987731372122584e-0
15,110000000,-0.013320385928990618,0.022279745180722427,0.0001124413145011939
15,115000000,-0.03305729109087769,-0.0005589371679025007,-0.0001167933144863779
15,120000000,-0.029249685060220847,-0.032572475062441944,0.0001078949883930559
15,125000000,-0.03992834990632427,0.0044922747666891,-0.0001604319534119980
15,130000000,-0.02680440207726116,0.013121783458227818,-0.0001592969785692022
15,135000000,-0.036557307889849795,-0.018269237201728995,8.73101587513887e-0
15,140000000,-0.05540205893385034,-0.012425585707678755,-2.158781872088994e-0
15,145000000,-0.05267027653741705,-0.003648950026061754,2.5900399438581647e-0
15,150000000,-0.04856850065014224,-0.007643847505281218,-0.0001308932457694755
15,155000000,-0.05129502694825895,-0.01375397872576033,-0.0002149204736395947
15,160000000,-0.05307912794857772,0.01345570646045099,-0.0001008014640707503
15,165000000,-0.017884513104564063,-0.00947845384135355,-0.000367622488624738
15,170000000,-0.06332332892112337,0.0015815892526067146,8.597677218826889e-0
15,175000000,-0.08277507652209667,0.023861137441247494,0.0002020561279642736
15,180000000,-0.03042333006286652,0.020430324473084446,0.0002117380735803395
15,185000000,-0.03425792257148751,-0.015872162875734334,-9.502947517840697e-0
15,190000000,-0.0508657788247599,-0.000917118714191446,0.0001678707021844199
15,195000000,0.005909340870120031,-0.029045061500079235,-0.0001082222304950602
15,200000000,-0.036481134591304414,0.0021085200969555564,-0.0003090916469791434
15,205000000,-0.050190723099144616,-0.04050851338775217,-3.918497392340283e-0
15,210000000,-0.021064330868919068,-0.007947454326047307,-9.005039089556671e-0
15,215000000,-0.0706576069000292,0.015317296755227694,3.896738185910409e-0
15,220000000,-0.0394674919992795,0.0002199394788156289,-6.22826890785443e-0
15,225000000,-0.04143496841752553,-0.003318924801652042,5.835002099767161e-0
15,230000000,-0.054025112605338516,-0.007769788129995461,0.0001424761060746708
15,235000000,-0.04756381924587591,0.018175466770144703,-0.000119497072202226
15,240000000,-0.07530233416557673,-0.007666963788950282,0.0001489563840199971
15,245000000,-0.05213303529203141,-0.0016453740431506619,0.0002028064962628554
15,250000000,-0.05259663649797006,-0.011517116409375633,-3.560944363067884e-0
15,255000000,-0.051618239384880395,0.00951806067558539,0.0001123308685236969
15,260000000,-0.061559869197643086,-0.02039523389863267,-0.0001998729790979461
15,265000000,-0.04923173352115034,-0.018870500366615656,6.21947248876047e-0
15,270000000,-0.07182012031927992,0.02836219717276369,0.0002884131365319307
15,275000000,-0.05662767993279021,0.023593196854429614,0.00028894341036218
15,280000000,-0.025886839164491113,-0.041537170171748385,-0.0001573600841110936
15,285000000,-0.0769309977979252,0.018481374384943253,-0.000111819130259476
15,290000000,-0.11321965844966787,0.017109282781593828,-0.000200522750615820
15,295000000,-0.02792755646376928,-0.017933437288133593,-0.0001465709346155
15,300000000,-0.043226362800542546,0.003091766378541367,-0.0002474231551129227
15,305000000,-0.04046309373010527,-0.028648264855804944,-0.0001402189313562381
15,310000000,-0.05023134752740181,0.002415050460444096,-4.0175090260907905e-0
15,315000000,-0.08292568866437247,0.02447418527856743,8.013587040734119e-0
15,320000000,-0.09966143069554217,0.022075598459236234,0.0001366157784761461
15,325000000,-0.005435675946238665,-0.0009167888696073206,-0.0002870136417597482
15,330000000,-0.1507802594011423,0.019510007381962402,7.057186578240338e-0
15,335000000,0.05749318761582243,0.00011956497552519096,0.000146651634535748
15,340000000,-0.058913624285287375,-0.012728345992059003,-0.0001226526885663778
15,345000000,-0.12499339482415003,0.004146362674200454,4.118658943299183e-0
15,350000000,-0.013938172872072226,0.011119610144205873,0.0001555036651108846
15,355000000,-0.14973534393321866,-0.010528926132253806,0.0002928889502312853
15,360000000,-0.05337098659788564,0.006611475051254988,0.000105154714971012
15,365000000,-0.05929651453981704,-0.011780202505079466,7.439241376636064e-0
15,370000000,-0.06095206172521309,-0.011255523415832578,-0.0001358506412046429
15,375000000,0.010987829576899416,0.01671279986951621,-0.0001095038346314497
15,380000000,-0.13146043689422826,0.0005873400939871583,0.0001852133442232421
15,385000000,-0.056978240449800106,0.006396664746600265,-0.0002369376501558105
15,390000000,-0.04770470816557711,-0.0017966541295247494,0.0001492657595678106
15,395000000,-0.046849277297923014,0.0034092013616108486,-0.0001625954790561226
15,400000000,-0.07083644628303072,-0.012264474419067303,-7.848949525587516e-0
15,405000000,-0.05730119209143123,0.0007573177368305232,0.0002601476833693810
15,410000000,-0.09217336233373025,0.009090833278536211,0.0001003816616834218
15,415000000,-0.036964262950923005,0.015863645542048825,-0.0001402733069402667
15,420000000,-0.08549345589634492,0.0063283967482799675,-8.537736753904188e-0
15,425000000,-0.08141846499396592,0.013360340615324474,0.000151878934316583
15,430000000,-0.09039373971306444,0.021422276148863818,-1.467721906823701e-0
15,435000000,-0.037232561595020745,0.014277433633368822,-0.0002879649479228343
15,440000000,-0.043265322920782986,0.013713101832771269,9.430267759758094e-0
15,445000000,-0.05219723275050592,0.004848125817164166,0.0001054969623809933
15,450000000,-0.053097290534766854,0.013346283024530229,0.0004270089533283260
15,455000000,-0.07149272160595478,0.031014643411700453,-0.000101988346955280
15,460000000,-0.08127783168513814,0.007034062974903759,0.0001358340791584474
15,465000000,-0.06196452577419293,0.023496313978102833,0.0002066222219179626
15,470000000,-0.10594882815587697,0.014995278992981231,-0.0001740728419221597
15,475000000,-0.031563466618925444,0.00533292719490485,0.0002928131054170088
15,480000000,0.025510331259187155,0.020720188163862095,5.162329370470933e-0
15,485000000,-0.15563295343806352,-0.025487657333700064,-0.0001237997315342378
15,490000000,-0.07297988333558952,0.009092249908681873,0.0001900505034741245
15,495000000,-0.0634855376485661,0.008358716561563565,3.3988657319610594e-0
15,500000000,-0.00865554110804291,-0.018282296735942737,-7.126022191105724e-0
15,505000000,-0.16127011806972416,-0.020443701802957376,0.0002483665765223918
15,510000000,-0.0555777976151676,-0.005217469597603423,0.0001847843979822336
15,515000000,-0.07304939836090037,0.017995286939533086,0.0001640798186775629
15,520000000,-0.06397918459151054,0.0031222837021522565,0.000218371992227500
15,525000000,-0.04835664603109732,-0.0016098576836071112,-2.7081751941796643e-0
15,530000000,0.05161788082260011,0.025858562950534545,-0.0004759955415690296
15,535000000,-0.1260462407293824,-0.007610945427914073,-6.149609069986771e-0
15,540000000,-0.06933607326155986,0.01216449174498464,0.0002947797801384302
15,545000000,0.022035866601504816,0.015238200091283148,-0.000197689927527216
15,550000000,-0.13967280541546076,-0.0060496674285420845,-0.000393345506522931
15,555000000,-0.07689365598153466,-0.005562110720501241,-0.0001907393730769826
15,560000000,0.018609673603587014,0.01326080183805146,-5.722233290285378e-0
15,565000000,-0.1371893228216104,0.0037517096351592804,0.000202423440755100
15,570000000,0.03154876405932656,-0.008223632583302075,-0.0001394561106605669
15,575000000,-0.13111906749044985,-0.01707050859661179,1.8233505377209326e-0
15,580000000,-0.07837751346643408,-0.004936116088461785,2.214442726401732e-0
15,585000000,0.04099239994352328,-0.015306419197503841,0.0001722884669814945
15,590000000,-0.11849460203770829,0.011372481432264069,-7.411663097858154e-0
15,595000000,0.012317264969411351,0.005201954322049068,9.072462653862473e-0
15,600000000,-0.13821384508006035,-0.009898577601057336,0.0001651525557985341
15,605000000,0.013304443785889382,-0.0005580318067358302,-0.0001103047613691053
15,610000000,-0.053964152265956675,0.022580291558283283,3.473215309217481e-0
15,615000000,-0.12514787067343994,0.015544589319925351,-3.7923730357429194e-0
15,620000000,0.03653745830953216,-0.01134844554474581,0.0004119544250495841
15,625000000,-0.04795541778652079,-0.041112092960262914,9.466560539172193e-0
15,630000000,-0.022630531752625624,-0.014677185511689993,-0.000241567499958091
15,635000000,-0.0531159657821229,-0.007686727394276441,-0.0001907604979032726
15,640000000,-0.04086556221873437,0.02934676089024641,0.0002893086707208931
15,645000000,-0.0723675660086829,0.023515159910175998,1.1955450967548552e-0
15,650000000,-0.09664466306452922,0.02022078933106096,9.915842893940234e-0
15,655000000,0.016173101358222954,0.003056988347492916,9.186680467207622e-0
15,660000000,-0.0830505474345841,-0.007483011167679195,0.0001764800642779348
15,665000000,-0.03825651427656255,0.010340148875599125,0.0001186923480716841
15,670000000,-0.039883057725533216,-0.015107092427970915,2.37848025898441e-0
15,675000000,-0.040378940402917125,-0.010251424351358278,9.496060613269124e-0
15,680000000,-0.05444021123198289,0.010422798486322996,-0.000317627916355673
15,685000000,-0.06829793151389008,-0.00846535272720414,0.0001508825818256490
15,690000000,-0.0415695875871599,-0.005929257483200086,0.0001023936341061475
15,695000000,-0.0535118687019094,0.012896446558660358,-8.336497086076235e-0
15,700000000,-0.024589370892465462,0.013027280555335273,-0.0002129794812049271
15,705000000,-0.051983640661715104,-0.04422693349898602,-1.9689333766169258e-0
15,710000000,-0.06561580305240478,0.00048099924886607637,-4.6060181781215476e-0
15,715000000,-0.037699096981062656,-0.004392089874227123,-0.000323346646524406
15,720000000,-0.07923561101507504,-0.010049637461690965,0.000122688817073538
15,725000000,-0.05498143324061539,0.012577695509514387,2.15080882172483e-0
15,730000000,-0.054910088072321006,-0.0013405849956986122,-7.227752783625975e-0
15,735000000,-0.05199560704191217,0.012192999474407558,-0.000337982844682632
15,740000000,-0.06181254966850641,0.037571619859918005,3.425477690006624e-0
15,745000000,-0.09222795318693351,-0.009050678561905546,0.0003287670229302949
15,750000000,-0.033642872171164157,-0.019922937182620094,5.7238249472463436e-0
15,755000000,-0.046727326208447995,0.005855779739344621,-0.000213605665247383
15,760000000,-0.05451377991422395,0.01388975633848671,-0.00033855790779018
15,765000000,-0.05068466879062608,-0.03032771395320742,9.256073495983397e-0
15,770000000,-0.04200914749137816,-0.0008206694849361461,0.0001887114363246628
15,775000000,-0.0589993527804341,-0.004142381675202948,-0.000341543853843647
15,780000000,-0.018048290084136477,0.0029853634457452957,-0.00030246063146128
15,785000000,-0.02420271606858817,-0.013348231837404393,-0.00029611295102863
15,790000000,-0.05850069111724314,-0.026983099214671163,-0.000334225047800025
15,795000000,-0.03111140299123793,-0.00879614761681658,-0.000200355333005947
15,800000000,-0.02801688764606497,0.004550112964257055,0.0001911596125183058
15,805000000,-0.05204052521777856,0.0058268717257024,-0.0001409902281120152
15,810000000,-0.03049718555099564,0.009807245204989533,-0.0002518029793168337
15,815000000,-0.02859337731265856,-0.006970788203060917,-0.0001836077434390379
15,820000000,-0.03255990790468432,0.009142535320407185,7.885713536759273e-0
15,825000000,-0.12936653240380777,0.0089526819311464,0.000285009691618715
15,830000000,-0.010149920186989764,-0.015501792222315533,-8.219820627988516e-0
15,835000000,-0.06935236931590459,0.02047671010962023,-4.7635966371560966e-0
15,840000000,-0.08328353998905261,0.00019694911119953762,-0.0002163107471753683
15,845000000,0.020652630248476772,0.0006604841351897952,-2.2438987961143197e-0
15,850000000,-0.0934509523631509,0.010719763617564276,0.0001724133555483678
15,855000000,-0.1338436998984794,-0.010699901271861115,-0.000378129946813049
15,860000000,0.012029722152519799,0.006827902184947301,-0.000135941103367495
15,865000000,-0.07110670822532239,0.04159797855134892,-0.000322854321933545
15,870000000,-0.08919618942630009,-0.009671928619412767,-0.0001175259042225848
15,875000000,0.039739789745633206,-0.0011051825152039504,0.000520698630403178
15,880000000,-0.05059907159712394,0.0009908847304765437,0.000331201704002901
15,885000000,-0.11146898739354133,-0.013991312847875656,0.0004080474046985416
15,890000000,-0.023789135433012032,0.00011503716423599125,0.0001687846977982392
15,895000000,-0.13465771556400863,0.023809784616495272,3.7845236342861285e-0
15,900000000,0.01602629904708238,0.00016172061130352285,1.4332604151400102e-0
15,905000000,-0.080073721462095,-0.02761868589983944,-0.0001741687305017908
15,910000000,-0.15023242281034604,-0.023675299426781374,-9.9301313577854e-0
15,915000000,-0.028471986868197713,-0.008358707867840822,-4.113880137800557e-0
15,920000000,-0.14444329412873386,-0.003580878809188226,-0.0002604805718563174
15,925000000,-0.02029898234452289,-0.022359105463826773,-0.0002855094691381805
15,930000000,-0.008055860153925863,-0.016383736382746324,-0.0001468402952526036
15,935000000,-0.12366573194404298,-0.0008115489611390491,-0.000179249903921914
15,940000000,0.024032868407208252,-0.012216077309007006,-0.000251178429391476
15,945000000,-0.10764010066688917,0.010120393962682873,-4.007757563951227e-0
15,950000000,-0.06959901767653201,0.004759120261553157,0.000362686984167959
15,955000000,0.027515436725840597,0.015204069546502993,-0.0001185267855720425
15,960000000,-0.09974031876523867,-0.017178600389764834,4.97132359571524e-0
15,965000000,-0.014164259561641981,0.005736539455934493,-0.0002215649345671674
15,970000000,0.010321172447260106,0.021973780155607057,-0.0002035759939388037
15,975000000,-0.1273993497358539,0.00996595430249206,6.500277434623984e-0
15,980000000,0.022179702080528753,-0.005557923524064545,0.0002717592069431574
15,985000000,-0.1008369285439615,0.01273377432885983,-0.000496475813238738
15,990000000,-0.01959243684883881,0.0012090504542303488,-0.000410898123445949
15,995000000,-0.09414289935959236,0.01751398208871813,8.42838477371492e-0
16,0,-0.052169977745522136,0.012143111079412518,-0.0002962392565087993
16,5000000,-0.07638581267174097,0.024305858636273246,-0.0003010681802744617
16,10000000,0.023105326363130535,0.00844705144578439,0.0002967835099383012
16,15000000,-0.10440512075132066,-0.004089469926097752,-4.673388711429124e-0
16,20000000,-0.04354871482204284,0.004642409346626093,-0.0001015275567101913
16,25000000,0.042574551234005234,-0.00392800866358679,0.0003142030976841214
16,30000000,-0.11700852189527002,-0.009223262853443378,-0.0003734102282755871
16,35000000,-0.05609559709251224,0.015578284894061599,0.0002152115339389269
16,40000000,0.020155776162352868,-0.006328282884355258,0.000323655923206622
16,45000000,-0.1502370067289457,-0.0008731985644012448,6.254226369139862e-0
16,50000000,-0.05956822484305402,-0.004450739466928301,8.081215006094868e-0
16,55000000,0.04126076788383566,0.01147198448477643,-0.0003632608894534915
16,60000000,-0.14330453117560082,0.014404397413261143,0.0002403122220128881
16,65000000,-0.02611329817646532,-0.013041118716704637,2.4451994933059537e-0
16,70000000,0.03736000475615969,-0.03506458343669479,-6.651731690656252e-0
16,75000000,-0.15218465317922744,0.030407828404887607,0.0001081625186814658
16,80000000,-0.0674178129536208,-0.0036007972605265584,0.000122610994071665
16,85000000,0.018348365377248592,0.003146067534953394,2.9163611512979027e-0
16,90000000,-0.15052607171757776,-0.015365000401556361,-0.0002185374469365248
16,95000000,-0.08567067127268242,0.0026337293579915435,-8.658796096165876e-0
16,100000000,-0.00068561380712019,-0.028945363640604016,0.000286636464807118
16,105000000,-0.12371208682780407,-0.002870680254133795,-3.027416901919434e-0
16,110000000,-0.016584269147562492,0.0010928289277881116,0.0002178524574396787
16,115000000,-0.06636040788940233,0.032349623140794,-0.0003953400410526591
16,120000000,-0.15849839841958757,0.01485310646105508,9.081294893765187e-0
16,125000000,0.043042156194567874,0.01388698379296788,-1.0347057393313801e-0
16,130000000,-0.09327177341493517,-0.01682344848333214,-3.313946199762466e-0
16,135000000,-0.1294772409403756,0.0239823538411021,0.0002282608776511745
16,140000000,0.055976089628185614,0.008422375109115567,-4.3612612520887284e-0
16,145000000,-0.15038096425000572,0.011427463546443941,2.1548255596111585e-0
16,150000000,-0.08133147536030107,-0.015622591031009018,0.0002318398194285861
16,155000000,0.05103292296768292,0.0022559446594405314,0.000382885688535620
16,160000000,-0.12061057524830665,0.014926709918182955,-0.000309079119994670
16,165000000,-0.002614564307783236,0.007926756697288886,0.000207091093455329
16,170000000,-0.09128839187411311,0.02386921435613285,0.000169183354713547
16,175000000,-0.1338459901923293,0.010614196112465253,-0.00015154682244520
16,180000000,0.035910950495945004,-0.029191443703116805,-0.0001932598875800404
16,185000000,-0.04644624042975279,-0.0009200080921410966,-0.0002929195879605868
16,190000000,-0.1440788626556084,0.02778244336328397,-7.946019963778955e-0
16,195000000,0.021841330196310498,-0.0031975294996027756,4.17370819046571e-0
16,200000000,-0.09053106258126754,-0.003867590980223076,0.0002040216628957895
16,205000000,-0.12187372800669166,-0.0035561518189325472,-0.0002397521450178998
16,210000000,0.033507529458188856,0.027398762288577256,0.000143423434564469
16,215000000,-0.059881421844240494,-0.004542053479364217,-0.000355364262547709
16,220000000,-0.14963343730310258,0.02786154427625668,-0.0002112275626063413
16,225000000,0.00699367619308152,-0.0012977808526688844,-8.325149136729949e-0
16,230000000,-0.07184536680038811,-0.023352274567695334,5.7495398857427315e-0
16,235000000,-0.03636335643750315,-0.0029820064666793516,-0.000407141236888618
16,240000000,-0.04200598022066607,-0.007289468520931349,-0.0002396978576224333
16,245000000,-0.05287709293721225,0.012561742786162367,6.326159934399123e-0
16,250000000,-0.06590106323592536,-0.022876857338090105,3.842040374168164e-0
16,255000000,-0.12426646161495862,0.011304231001063939,0.000356834591483115
16,260000000,0.03851732271128488,-0.02245004125582063,-0.000515369942999366
16,265000000,-0.05816150683343356,-0.01740860048835026,-0.0003556531840741956
16,270000000,-0.05028513766949889,-0.003505648567088174,0.0001390686759686320
16,275000000,-0.0431760906826651,-0.0032809832193989676,-6.089086458307118e-0
16,280000000,-0.061351624046874956,0.011239304611635961,-7.714074622680454e-0
16,285000000,-0.06228720646998892,-0.022636320684314048,9.624338726518523e-0
16,290000000,-0.05566496050539988,0.0012010163592636519,-0.0002042463248735743
16,295000000,-0.05715475789580826,-0.018616408074568075,-9.496502946040869e-0
16,300000000,-0.04754990541005315,0.002489121678402842,-3.5713049103019277e-0
16,305000000,-0.049847334884307565,0.020476542783821577,0.000288961380027603
16,310000000,-0.05047471627679046,0.02040919801306904,8.317035882215437e-0
16,315000000,-0.07161417187016983,0.0034280556928189144,-0.0003761256264338322
16,320000000,-0.034949156115037246,-0.018509029016931224,-0.0003123605508787812
16,325000000,-0.037101717010636,0.01133420994836291,-4.131699425864234e-0
16,330000000,-0.04546123553270644,0.0128263695563825,-4.728490769719946e-0
16,335000000,-0.1539456061291352,0.02898558782903118,7.098593588236451e-0
16,340000000,0.0027973445731116417,-0.01669369705754139,9.030770802020718e-0
16,345000000,-0.05637143698166813,0.0132519518284152,-3.306140693732125e-0
16,350000000,-0.06017605328503634,0.023004293728010414,-0.000122770104961093
16,355000000,-0.11081614480444538,-0.022747791859186378,-0.0001625377145921174
16,360000000,0.04482631031645963,-0.016124388068518472,0.000373059575842519
16,365000000,-0.06405607748063237,-0.011749312142963708,-0.0003116043300998304
16,370000000,-0.12116442433128495,0.021331216064061118,-0.0002524102497331749
16,375000000,-0.0034647623236606535,-0.021477049921653488,0.0001660403191008223
16,380000000,-0.06884072253843972,0.010342103027617247,0.0001285366318451319
16,385000000,-0.11533758356332238,0.03255096392173644,0.000185702364082384
16,390000000,0.03084487630666744,-0.010135840005515985,1.3055704173956768e-0
16,395000000,-0.07566758844073496,-0.007150905243401815,0.000397788452328875
16,400000000,-0.14083250448839513,0.010727343319899193,-0.00015720341738493
16,405000000,-0.0020755133965233204,-0.02809596707218756,-0.0002673336987563191
16,410000000,-0.05102100137206045,0.0011608233070927016,-0.0001122608536851819
16,415000000,-0.07134914971455131,-0.0012651875034852794,4.540176715693333e-0
16,420000000,-0.0680111548865368,0.026762759173644353,-0.0002996417849786823
16,425000000,-0.14410006657843158,0.034021696684612586,1.2994757885353879e-0
16,430000000,0.03636057844115048,0.012323078976264185,0.0002503688098536800
16,435000000,-0.13238817624383784,0.007831766101220626,-0.000242395352638830
16,440000000,0.008782027705521616,0.021335766866522242,-0.000300582350492701
16,445000000,-0.059998518103421994,-0.0067932786637949225,0.0002283591987264524
16,450000000,-0.11395408558131856,0.03918519021291636,0.000545100085936017
16,455000000,0.0034484188328421234,-0.00776203266424796,-0.00033419374257259
16,460000000,-0.054056150092827104,-0.010610813018857005,-0.0001553475486378926
16,465000000,-0.1152177208458418,-0.006970736318235273,-0.0001845157962110992
16,470000000,0.021794483813557138,0.04005282823035227,-5.274108556608438e-0
16,475000000,-0.11831015060694332,0.007300330175277514,7.714735549447014e-0
16,480000000,-0.07144167765396908,-0.009589527418037407,0.0003094120287036336
16,485000000,0.038535226327359104,0.02018371641125023,-0.0003259856132850530
16,490000000,-0.14776133261263782,-0.02237873508431431,0.00021495304915827
16,495000000,-0.036897477373525084,0.022594577371755492,-8.250606934430637e-0
16,500000000,0.02514520276402564,0.000995862681226648,1.3518129105738444e-0
16,505000000,-0.13332349664765858,-0.02584656638854157,0.000197867143322894
16,510000000,0.0330151216226627,-0.003797413790039033,-0.000430178702411722
16,515000000,-0.14523343959217422,0.01079453890652699,0.000142986885073319
16,520000000,-0.05597677549247597,-0.009649428099293221,-6.0177327324287605e-0
16,525000000,0.026076193178084794,0.0038654674089691914,0.0002039259337294614
16,530000000,-0.1416142797372771,-0.015421611578510888,-0.000311452591201496
16,535000000,-0.04091898280839496,-0.004423881700899877,0.0001670396109944261
16,540000000,0.053181474455668024,-0.01785725176820529,0.0002061638574068955
16,545000000,-0.12973504025341162,-0.008962654367879717,0.0003074221791195741
16,550000000,-0.04447517399762124,-0.002948526887957553,-1.7603020242083587e-0
16,555000000,0.008208434117055838,-0.012803347549896791,-5.1135577981667244e-0
16,560000000,-0.14578816827786473,0.02821308707659265,1.974239998496052e-0
16,565000000,-0.011572821828913747,0.009414353334766467,-9.207401055657172e-0
16,570000000,-0.11895264467926428,0.016317799183618333,-0.000187680049231654
16,575000000,-0.04783659920738899,-0.017674495256770135,-0.000212403240869127
16,580000000,0.009008034931144816,-0.0010798556739542403,3.965703317237109e-0
16,585000000,-0.13036421781947563,0.0063330996193411045,-0.000286436456454881
16,590000000,-0.05076201260379284,0.013391671786382503,0.0001083220400233193
16,595000000,-0.0015483236164993367,0.012641579846667812,9.317668626775068e-0
16,600000000,-0.1473340923545916,0.0007636916799831031,0.0001797806001665604
16,605000000,-0.033053490942262384,-0.021328853072266434,0.0002660822751032910
16,610000000,-0.057110635150657035,0.009802999480510596,-0.00034922153184242
16,615000000,-0.045052962416642514,0.010256836354982988,-8.599677733632318e-0
16,620000000,0.011565858336549158,0.012976245962912393,-6.667269507217072e-0
16,625000000,-0.14909295193329863,0.011679501093101171,-0.0002342961480021630
16,630000000,-0.07386885918318724,0.004003877258013196,-0.0002350745122364391
16,635000000,-0.02092974498525175,0.037749706747384856,0.0001169018911151521
16,640000000,-0.15505672168527324,0.0033172755446626615,0.0001718271626947811
16,645000000,0.04490933722643331,0.019199376512204974,-0.0001336387102304536
16,650000000,-0.12085249854167843,-0.02215299982142893,0.000276173571142408
16,655000000,-0.020545549785630543,0.0213010201257171,-9.684245607166271e-0
16,660000000,-0.003074835579973633,0.0010908023131818686,-0.0001696773580175126
16,665000000,-0.11805146627646712,0.006870166363566885,-5.989619577147577e-0
16,670000000,-0.03937118792950453,-9.430291562724752e-06,-3.501323650439933e-0
16,675000000,-0.009694433360370226,0.023192589132940075,-4.937704202414335e-0
16,680000000,-0.11136709419762432,0.0020281750060642235,-9.856662695194924e-0
16,685000000,0.08119241026726715,0.006378020808893749,0.0002789489709643591
16,690000000,-0.07946986634915854,0.0287106955297029,7.256999421490533e-0
16,695000000,-0.13924597063516697,0.03499212852067296,-0.0002208621224364959
16,700000000,0.03599439973315373,-0.024423573724363042,0.000113764763453859
16,705000000,-0.1398455151916416,-0.010148696409832495,-4.185055683045689e-0
16,710000000,-0.06081078116990038,-0.029868397941643574,0.0002044686813565459
16,715000000,0.04914123059680306,-0.0006630293820384253,1.4823427430900265e-0
16,720000000,-0.14670594318705982,0.02260331263420769,-0.0004624861416016639
16,725000000,0.03051780305597085,-0.00019932667444893962,1.216185379552328e-0
16,730000000,-0.08299068005328403,-0.01995598212987573,0.0003893954736381896
16,735000000,-0.13360412262942367,0.022984620519777642,9.856339014823837e-0
16,740000000,-0.012365435665781237,-0.017562638036515435,-0.0002035188083257680
16,745000000,-0.03905222161707074,0.008191284883794003,0.0003321832995103530
16,750000000,-0.0667528901022168,-0.04100874931031178,0.000185009226464712
16,755000000,-0.059004302235199584,0.01168765190687915,0.0001763123592619482
16,760000000,-0.11452245141419631,0.0064296836942403625,0.0001260612027605036
16,765000000,0.038625038875635176,0.017992298363920228,0.0001640381157907589
16,770000000,-0.053014201102254584,0.034442455548652245,0.0002369684594102849
16,775000000,-0.14344418156656027,-0.008514425150800012,8.852304683260304e-0
16,780000000,0.0315813723233051,-0.0005778164431975315,0.000257853408928276
16,785000000,-0.05429406636506491,0.009040702333301533,-7.482525676391313e-0
16,790000000,-0.06390508511743631,-0.016055544558640177,4.715991532375644e-0
16,795000000,-0.05462650881675078,0.002028032137597982,-6.479666166512111e-0
16,800000000,-0.04928083244478425,0.0011402301860035551,2.1027699864985268e-0
16,805000000,-0.0588512720402094,-0.027118250766517058,7.583116637317168e-0
16,810000000,-0.05335320208169796,0.016608417954257215,0.0002066706847788674
16,815000000,-0.04960526255422039,0.0177038271849081,-0.0001770167921220917
16,820000000,-0.06063106662549154,0.0012816799662494272,0.000373773561917488
16,825000000,-0.034527411051408705,-0.030692051192923484,7.298880808680911e-0
16,830000000,-0.12467384477017215,0.016999837602717203,0.000415567524520700
16,835000000,0.025992821432370646,0.012635674729204065,-0.000305778950948123
16,840000000,-0.047166971340233274,0.026955027364011244,0.000475975509648344
16,845000000,-0.14401704420655623,0.010376184110636335,0.000244463419859233
16,850000000,-0.0004698837931711615,0.01629697880580403,-8.167973280299988e-0
16,855000000,-0.09560765868657642,-0.003933195371112102,-6.921761807305632e-0
16,860000000,-0.13964568814820172,0.0051913070017512155,0.0002255713856493126
16,865000000,0.03658174030749547,0.005664247295698922,-0.0001003898476930665
16,870000000,-0.035645095598810905,0.024852475230836935,-3.1339350748836225e-0
16,875000000,-0.12734903390844501,0.001702750003895659,-6.180590776605728e-0
16,880000000,0.027441940603524353,-0.030739479541103155,-0.000202400742351578
16,885000000,-0.07206555025200181,-0.020561237334578843,0.0002409384772138055
16,890000000,-0.15111676633827972,-0.022577286943621357,-5.333084229949602e-0
16,895000000,0.028197587366848496,-0.012468873471551557,0.0001094413836679641
16,900000000,-0.06543656489413356,0.008983089682639217,-0.000431858967239967
16,905000000,-0.10044604097911675,-0.001657969530021728,0.000153246964006331
16,910000000,0.036306803686551786,-0.0013788059326928686,0.00024956307640579
16,915000000,-0.03661414425930264,0.022078815643297493,-0.0001527281563344171
16,920000000,-0.10234979732535453,0.00020332946654304544,0.0001416007488331739
16,925000000,-0.009336144247517934,-0.01188699202549279,-0.0001919313755143368
16,930000000,-0.03713282408883696,0.02801044761508076,-3.08798164013489e-0
16,935000000,-0.14716555344648075,0.04010820598215281,-0.0002672124178138009
16,940000000,0.0524150179251202,0.029149977338627554,0.000400720328148044
16,945000000,-0.08753376215535591,-0.015741564935528633,0.00023738531657811
16,950000000,-0.11931998543427019,0.012914326246156758,0.00031947569670698
16,955000000,0.036231344534322626,-0.01257741461184772,0.0001111987082638033
16,960000000,-0.04439243867555735,0.024948276117334033,-0.0002737461256925747
16,965000000,-0.06178660456411798,0.005369008979070333,0.0001058148762573080
16,970000000,-0.007575555557514983,-0.02439328185343311,8.817021587678188e-0
16,975000000,-0.16332540686052865,-0.0063912235915328,4.328135130080895e-0
16,980000000,0.03043759192748579,0.029493876687931565,-3.3539220480820354e-0
16,985000000,-0.06512498261011822,0.00016339090308481095,0.0001010338413045774
16,990000000,-0.1454465638495246,-0.013731255939429756,0.0001802609398375237
16,995000000,0.04673527732665315,-0.01602739644401411,0.000174185489084624
17,0,-0.016058058781525143,0.003005824860306776,-0.0002643966444189861
17,5000000,-0.13638673536721047,-0.011910237537344447,-0.0001688996638101780
17,10000000,0.04109418831419136,0.028750534187289793,0.0002144328444343024
17,15000000,-0.12416684556287345,0.05027162031229282,-0.000245800020284444
17,20000000,0.019860823932424575,-0.01815019024829487,-0.000234138328682552
17,25000000,-0.04382998622757464,0.009358884172749483,6.867780581862841e-0
17,30000000,-0.10430682776213378,0.011839784639613112,0.0001469672532455776
17,35000000,0.026411733691744942,0.011199438592680203,0.000275684676959930
17,40000000,-0.13292754292002748,-0.02860737996595176,0.000218762620313291
17,45000000,-0.08244043396179283,-0.0011643358901997237,0.000433554183684515
17,50000000,0.03344007401315205,0.03713896971737961,6.636593898985154e-0
17,55000000,-0.13197710564518245,0.021409010376418486,-2.0623665641123562e-0
17,60000000,0.039433856368831816,0.0217546527934763,8.982958444422153e-0
17,65000000,-0.1302906661249117,-0.02635006405545568,0.000144600723062860
17,70000000,-0.09755652540799162,0.02693910786626573,-0.0004199489833295139
17,75000000,0.05268516112388258,-0.01699087080236348,0.000288358504179810
17,80000000,-0.15645141607974286,-0.004044123206910212,8.882147906008264e-0
17,85000000,0.02190745016249048,-0.0026046882622115398,-0.00039835602726342
17,90000000,-0.06113899830887024,0.03252158628116524,-0.000350581020820937
17,95000000,-0.16034104412907693,0.013326262150035998,0.000290529073373106
17,100000000,0.03733802743669106,0.017684726017648117,0.0004602511273921241
17,105000000,-0.064980957614018,0.045599197263699945,-5.3831792587324514e-0
17,110000000,-0.1346175536827567,-0.0009095668169873556,4.983732406128203e-0
17,115000000,0.016676595119872163,-0.00829790495229805,-0.0002376737014630143
17,120000000,-0.1468815889551315,-0.02387906986821744,-2.7399178245187625e-0
17,125000000,-0.00924615263400392,-0.014095756375229196,0.000119954588278534
17,130000000,-0.04989031947193254,-0.0037365002952617493,-0.0001252314708513401
17,135000000,-0.13754603051738337,-0.011663196428954185,-5.697654524303099e-0
17,140000000,0.038362729660143424,-0.037408675990504854,-0.000319446838967650
17,145000000,-0.0732797091635131,-0.021078639057455672,7.400965281264051e-0
17,150000000,-0.14097950600019413,0.02314766063227394,0.0002722540712636523
17,155000000,0.037209208711633295,-0.008319044926102158,3.530072352876219e-0
17,160000000,-0.12021293833620234,0.026653245764687687,9.559184776261247e-0
17,165000000,0.04384147287654877,0.018326238450419856,-0.000227167540606899
17,170000000,-0.15862695990839562,-0.007233424370965425,-0.0003449778545674833
17,175000000,-0.10474220148671574,-0.03964246522415915,0.000266409904582054
17,180000000,0.04920133938005922,0.00045310647738820286,0.0002596582263869586
17,185000000,-0.17080175807676612,0.01339705229021854,-0.0002211672940456834
17,190000000,0.06800765548295072,0.04779345733681993,-7.80049124449771e-0
17,195000000,-0.13221361017399605,-0.015709639336740057,-1.210276920614469e-0
17,200000000,0.07025240404893503,0.02714323057883817,9.203814511457025e-0
17,205000000,-0.057468316028507424,9.226302320035611e-05,-1.972502349579212e-0
17,210000000,-0.14720431917483157,0.02467878478335742,-8.926125598441507e-0
17,215000000,0.0703526855308249,-0.020443498457859793,0.0002049803676942120
17,220000000,-0.06899721394178678,-0.02512083430991296,-0.0001886732787860595
17,225000000,-0.11281010753071957,-0.020609891180394337,0.0001705819066160070
17,230000000,0.0454235764538221,-0.006265984514117216,-0.0001295651439413617
17,235000000,-0.18671762749789622,-0.0007224012326495406,5.800477062977339e-0
17,240000000,0.04357814915980731,-0.0044571381674798505,3.4806580283144613e-0
17,245000000,-0.06022216538103092,-0.019023060468550346,6.050077567256666e-0
17,250000000,-0.11501697895946535,0.023250879833654422,9.976549457771246e-0
17,255000000,0.05485577497178617,-0.005218211549103912,-0.000270851558539536
17,260000000,-0.06800432125386528,0.03621979865152601,-0.0002773901790989564
17,265000000,-0.14458225273625858,-0.0075275581702308105,0.0001037064625515909
17,270000000,0.04949612646946145,0.001217682451799998,0.0001139895618274901
17,275000000,-0.10006103399747314,0.04000007653456124,0.000246058293040485
17,280000000,-0.12397038798109025,0.0028135433328188436,8.144364391322421e-0
17,285000000,0.01954613197818159,0.04907971726086426,-5.518253183903096e-0
17,290000000,-0.09233559459437372,-0.005635870002851559,-0.0003074138279518678
17,295000000,-0.14048913816627873,0.009868355786150577,-0.000227061421272711
17,300000000,0.04007302383809374,-0.005205490276707696,6.8814751029310686e-0
17,305000000,-0.11831517468727254,-0.007347091161542742,-0.0002186839096348621
17,310000000,0.05464938483721755,0.011527659571688722,-0.0001048876227464232
17,315000000,-0.08656856551585825,0.0010613294027635991,-9.090678310341051e-0
17,320000000,-0.14366444992577299,0.03123237037774919,-0.0001604369820975049
17,325000000,0.04126376175805938,0.0057039031222729224,0.0002422574749669336
17,330000000,-0.12364740744288255,-0.02095421349529031,-4.6938991154684575e-0
17,335000000,-0.1291976886033724,0.0311918667298247,-0.000402262065197154
17,340000000,0.03626977038331181,0.03379329794954436,-7.619978949658221e-0
17,345000000,-0.06947911628545549,-0.005749016839523286,-0.000417067847687159
17,350000000,-0.15316003129413291,-0.009995435835693879,0.0001679912789177350
17,355000000,0.04950599716899293,0.006694462862614379,-0.000122102695234171
17,360000000,-0.055121360818966195,0.02182610978931619,0.000292469942276447
17,365000000,-0.14814526801614417,-0.01796137102444394,-0.0001689547503386137
17,370000000,0.061858290951340635,0.025204869071058737,8.94464063251512e-0
17,375000000,-0.1004526954394871,-0.008770381002212729,-0.0001789059219155331
17,380000000,-0.17390636163302506,0.00866988919842626,0.0001469475808044263
17,385000000,0.05680744947053956,0.017834734015580937,-0.0001828786975534607
17,390000000,-0.06512067528154412,-0.00048681563901218413,-3.1283086886631806e-0
17,395000000,-0.0675183409558824,0.014793644590832034,-6.097063443087924e-0
17,400000000,-0.04433146228596419,0.015952550450955547,-0.000143328296122124
17,405000000,-0.12584057168171842,-0.016505215822665856,3.70514913129472e-0
17,410000000,0.009688639823278715,-0.015504701936580231,0.0002602916723536891
17,415000000,-0.06623179157009586,0.011317349296349432,-1.5877584590865174e-0
17,420000000,-0.15217936440510293,0.028944024654520784,-0.0003590209810315287
17,425000000,0.07195129198951676,0.008457988423699053,-8.338945401847002e-0
17,430000000,-0.062268334085902856,0.013057989443705948,5.344405831702481e-0
17,435000000,-0.15739290466737516,0.017606215716290525,7.381248509392898e-0
17,440000000,0.05987417874937967,-0.009118192040161763,0.0001587165680930179
17,445000000,-0.0761939900808223,-0.018102103634140828,0.000286407487997577
17,450000000,-0.07937536569097156,-0.002079679492864638,0.000288154682147134
17,455000000,-0.049103014228041975,0.006816640239042633,-0.0002353808405246154
17,460000000,-0.14921279365370976,-0.012743162464406167,-5.043536736339542e-0
17,465000000,0.047375978520234896,-0.01928540038810385,-0.000399856287769972
17,470000000,-0.03990866702135321,0.018486194583256375,0.0002036320211808402
17,475000000,-0.08117143920439182,-0.0008482435660014055,1.9108363668353123e-0
17,480000000,-0.15831203230284596,0.023345231428308393,-0.0002081971256818557
17,485000000,0.07653515659845544,0.048986979059351766,0.000327174569241736
17,490000000,-0.06359339424755905,-0.005967008218765365,0.0002797198470996998
17,495000000,-0.15601599585434422,0.011772170589179266,0.0003053638478290973
17,500000000,0.09163635881285782,0.03485722547393277,-0.0002789129617605930
17,505000000,-0.05404751305980848,0.007487811591602091,-0.00034571715869525
17,510000000,-0.1805514362378297,-0.01570948149829786,7.219602467852093e-0
17,515000000,0.06979909658984562,0.011646773676509304,-0.000619284971050200
17,520000000,-0.217745263739426,0.02057706653411126,-4.2491157142828776e-0
17,525000000,0.07502384209190069,-0.04178595030547606,7.621962826517964e-0
17,530000000,-0.07062480594262113,0.0011297206026862105,0.000383539101495623
17,535000000,-0.19453261688575038,0.011531552303175137,0.000409747936773019
17,540000000,0.12938275284907555,-0.008288652897512723,-0.0004235686171617538
17,545000000,-0.06214717653054439,-0.008271421142373827,0.0004006940077555917
17,550000000,-0.18672275990643938,0.013176022822457419,3.293426101482445e-0
17,555000000,0.11599771462509678,0.002129062756191533,0.000319133742863427
17,560000000,-0.2037216770456722,0.024162813112836544,-0.000385136293548822
17,565000000,0.07009720866741787,0.014303598110838072,-0.0001531659499955978
17,570000000,-0.06401317283970273,0.012160212842016672,1.3084074529621344e-0
17,575000000,-0.207418428878441,-0.008814300766551245,0.0003006701609910
17,580000000,0.11027138247768205,0.0011113452075470931,-0.0001074758984731511
17,585000000,-0.24797082410531926,0.02458449228058873,-0.0001449748301765588
17,590000000,0.1398794451995178,-0.024709999732907273,-0.0001365216877731152
17,595000000,-0.06075755375241569,0.0006288025463673891,-0.0001475627301013116
17,600000000,-0.24710624652632276,-0.0041153948670278225,7.165229389387562e-0
17,605000000,0.14179547506159815,-0.003977289897243907,-3.2055742866713977e-0
17,610000000,-0.22709896812185698,0.0069144965584243614,0.0001796161545424993
17,615000000,0.13548197368961523,-0.02369879361149472,1.436830787334087e-0
17,620000000,-0.06534401649226945,0.00913339543363726,0.0003408837559281599
17,625000000,-0.21874697340011057,0.003657927014402965,-0.000295067009516783
17,630000000,0.10512411377089716,0.0020481145518867483,-3.3911884198827045e-0
17,635000000,-0.212784331008876,-0.01920483603673989,-3.231100208226098e-0
17,640000000,-0.087677198771622,0.004588904682663206,-0.000257867753005857
17,645000000,0.1038316158673204,-0.008705361468858376,3.15074757162507e-0
17,650000000,-0.1931260479823511,0.022286079683127374,-3.982844068998067e-0
17,655000000,0.07137464145050113,-0.015042534300267843,-8.238529209058923e-0
17,660000000,-0.0824565968294839,-0.010973202572683017,0.000247600717462149
17,665000000,-0.1635872730034316,0.006218591754963899,5.717505534475966e-0
17,670000000,0.10748290272597502,-0.0011455228518482152,-2.4332427081593906e-0
17,675000000,-0.19957336568137696,-0.017479481799000395,-1.8737803287422925e-0
17,680000000,0.07508997606197983,-0.0008591939171765553,-3.004250414228746e-0
17,685000000,-0.04373433185597313,-0.020789848851340005,7.421016136386051e-0
17,690000000,-0.17791372640917782,-0.01583641992250939,0.000490294498579167
17,695000000,0.06907960394585029,0.02016458271593182,-3.9172793300499507e-0
17,700000000,-0.1525301811714349,0.0015849991351817318,0.000282509201923210
17,705000000,-0.10352692254746537,-0.011357156496127747,-0.000333346701095607
17,710000000,0.054193849598324094,0.006043433922034118,0.000292922877173013
17,715000000,-0.15975841555686215,-0.007605913532102687,8.72744673935854e-0
17,720000000,0.06548222669841147,0.0101328405901951,-4.722189761265288e-0
17,725000000,-0.05847391059496276,-0.039439654390669376,-0.000112078963590548
17,730000000,-0.16828421903041194,-0.024890984629698177,-2.2399173051679462e-0
17,735000000,0.028940420050941114,-0.014272399048658138,-5.9313823489146996e-0
17,740000000,-0.16200880058818914,0.005679670801247431,6.262955843042086e-0
17,745000000,0.05885385199574664,-0.0009299917839740673,-9.793335174103622e-0
17,750000000,-0.0667144982200539,9.052642773069196e-05,-0.0001069266470313707
17,755000000,-0.13294678247565903,0.005695811654792156,-3.225208324633308e-0
17,760000000,0.059519460445679226,-0.0009642601096471886,-0.0002236201589911896
17,765000000,-0.07453734243526215,-0.0075643771687855564,-8.661714190807255e-0
17,770000000,-0.1296281817689935,0.023486712751039928,-0.0002018647735697103
17,775000000,0.029515758797785244,0.007641054043223135,-0.0001324250697813743
17,780000000,-0.1621134776934547,0.014369372456640201,3.627912170319097e-0
17,785000000,0.04942261246439105,0.01606280651812066,-0.000136019166268703
17,790000000,-0.14579728572503012,-0.014789658781231896,0.000254954431573612
17,795000000,0.025370216381821697,0.0016668659909657643,0.0001116969970171288
17,800000000,-0.04951354122508661,0.023405266797289093,-0.0002271624024535805
17,805000000,-0.1608926750921531,-0.008539572580865957,0.000366683900008464
17,810000000,0.010383750995684777,-0.00043286786207057744,0.000452753957959294
17,815000000,-0.11698228992716254,0.0014221152453575327,0.0001527950486415307
